t_ms,gyro_x_radps,gyro_y_radps,gyro_z_radps,accel_x_mps2,accel_y_mps2,accel_z_mps2
117983.0,-0.039885,0.089567,0.070875,0.0462,-3.3445,-9.8726
118003.0,-0.122323,-0.029609,-0.105280,0.3621,-2.0346,-9.4433
118020.0,-0.111621,-0.046210,-0.136236,0.1887,-2.1663,-9.5407
118036.0,-0.095946,-0.043811,-0.068875,0.1649,-2.0813,-9.9497
118053.0,-0.013890,0.007865,0.048918,0.3587,-1.7555,-10.5749
118069.0,0.013064,0.053801,0.135326,0.3249,-1.7445,-10.1151
118086.0,0.000079,0.055155,0.085022,0.2521,-2.0258,-9.5482
118103.0,-0.019836,-0.002252,-0.042914,-0.1420,-2.2766,-8.6027
118119.0,-0.006397,-0.065976,-0.134434,-0.1335,-2.2800,-8.9304
118136.0,0.071180,-0.069146,-0.117757,-0.0438,-2.1389,-9.3280
118153.0,0.109662,-0.031283,-0.005399,0.2038,-1.7313,-10.1706
118170.0,0.028593,0.043000,0.113466,0.5278,-1.6946,-9.8050
118187.0,-0.066667,0.098674,0.112116,0.6170,-1.8193,-9.3986
118203.0,-0.141849,0.085978,0.047990,0.2125,-2.2082,-8.8773
118220.0,-0.138624,0.027453,-0.028915,-0.1552,-2.4249,-9.1737
118236.0,-0.071680,-0.005220,-0.078763,-0.2086,-2.3309,-9.3485
118253.0,0.027233,-0.032032,-0.072975,-0.2755,-2.2323,-9.8403
118270.0,0.049033,-0.043092,-0.031832,-0.1856,-2.1344,-10.0236
118286.0,0.032947,-0.056531,0.033601,-0.1185,-2.0560,-10.0354
118303.0,0.024966,-0.037418,0.075997,0.1472,-1.9190,-9.9216
118320.0,-0.014799,-0.007356,0.035697,0.2779,-2.0182,-9.2992
118336.0,-0.045922,-0.014475,-0.025106,0.2084,-2.1467,-9.0760
118353.0,-0.047360,-0.046104,-0.073767,0.0036,-2.2281,-9.1964
118370.0,0.033767,-0.036515,-0.047314,0.0802,-1.9381,-9.8801
118386.0,0.033258,-0.010153,-0.003289,0.1944,-1.8589,-9.9484
118403.0,-0.003897,0.013191,0.053271,0.2236,-1.8678,-9.8456
118420.0,-0.025990,0.028313,0.027965,0.2161,-1.9975,-9.4077
118437.0,0.001302,0.024836,-0.021723,0.1884,-2.0339,-9.2325
118453.0,-0.018483,-0.004545,-0.031892,0.0428,-2.1567,-9.3708
118470.0,-0.057017,-0.042780,-0.000582,-0.0416,-2.1385,-9.6329
118486.0,-0.024119,-0.031057,-0.004160,0.0477,-2.0385,-9.6883
118503.0,-0.002453,-0.021557,-0.022778,0.0096,-2.0408,-9.5765
118520.0,-0.022332,-0.013877,-0.047361,0.0703,-2.1319,-9.4552
118537.0,-0.015269,-0.002934,-0.046582,0.1172,-2.0711,-9.5422
118553.0,0.002879,-0.006082,-0.009376,0.0174,-2.0247,-9.8816
118570.0,0.063216,-0.030381,0.009375,-0.0724,-2.0303,-9.8179
118587.0,0.040976,-0.048384,0.005484,-0.1160,-2.0481,-9.6268
118603.0,-0.017758,-0.039923,-0.007991,0.1154,-2.0776,-9.3046
118620.0,0.004135,-0.030672,-0.019334,0.0889,-2.0352,-9.5559
118637.0,0.062667,-0.013695,0.005323,0.0967,-1.9532,-9.7597
118653.0,0.071337,0.014189,0.031493,0.1579,-1.9607,-9.9496
118670.0,0.039995,0.010981,0.014852,0.0534,-2.1555,-9.4789
118686.0,-0.003434,-0.007237,-0.014928,0.0028,-2.2016,-9.3194
118703.0,-0.038646,-0.025086,-0.030974,-0.0352,-2.1937,-9.2873
118720.0,-0.040596,-0.017179,-0.010911,0.0531,-2.0503,-9.6127
118737.0,-0.056462,-0.020079,0.019212,0.0759,-2.0077,-9.7224
118753.0,-0.005544,-0.027292,0.023850,0.0013,-1.9297,-9.7727
118770.0,0.029332,-0.038919,0.002337,0.0341,-1.9285,-9.6120
118787.0,0.039156,-0.039854,-0.030343,0.1109,-1.9357,-9.4959
118803.0,-0.010092,-0.018305,-0.043418,0.2851,-1.8947,-9.2891
118820.0,-0.040609,0.008291,-0.021854,0.3048,-1.8488,-9.5740
118837.0,-0.070556,0.050149,0.019378,0.2705,-1.8272,-9.7062
118853.0,-0.018098,0.120227,0.060733,0.3256,-1.8175,-9.9910
118869.0,-0.012311,0.135498,0.063498,0.0159,-1.9707,-9.7270
118887.0,-0.068265,0.090013,0.030001,-0.1466,-2.2040,-9.3841
118903.0,-0.069153,-0.001728,-0.038481,-0.4874,-2.5106,-9.1304
118920.0,-0.017570,-0.058806,-0.071238,-0.5134,-2.3994,-9.3591
118936.0,0.009638,-0.053256,-0.044904,-0.2716,-2.2220,-9.6021
118953.0,0.007718,-0.030558,0.047432,-0.0085,-1.9158,-10.0450
118969.0,-0.011127,-0.026391,0.061732,0.0955,-2.1153,-9.6729
118986.0,-0.031001,-0.053593,0.011716,0.0103,-2.2190,-9.4131
119003.0,-0.030478,-0.077602,-0.082483,-0.0361,-2.2700,-9.0861
119020.0,-0.006501,-0.063918,-0.083263,0.1314,-2.0981,-9.6003
119037.0,-0.005572,-0.048226,-0.025012,0.1803,-1.9811,-9.8638
119053.0,0.009464,-0.048650,0.049982,0.0533,-1.8950,-10.0286
119070.0,-0.010527,-0.075369,0.048052,-0.0301,-1.9477,-9.5066
119087.0,-0.023091,-0.095250,-0.006073,0.0181,-1.9342,-9.1417
119103.0,0.019925,-0.125599,-0.062193,0.0664,-2.0224,-9.0649
119120.0,0.108212,-0.123074,-0.018296,0.0139,-1.9104,-9.9323
119137.0,0.144145,-0.060448,0.066130,0.1784,-1.7150,-10.2874
119153.0,0.080721,0.025058,0.118549,0.4690,-1.6704,-9.8689
119170.0,-0.005729,0.050465,0.096822,0.3089,-1.9426,-9.2277
119187.0,-0.024409,0.018532,0.038747,0.0820,-2.1410,-9.0975
119203.0,0.079889,-0.081731,-0.055078,-0.4304,-2.4054,-9.1321
119220.0,0.156662,-0.144878,-0.068300,-0.4414,-2.2354,-9.4813
119237.0,0.156684,-0.162579,-0.019959,-0.3142,-2.1056,-9.6434
119253.0,0.118448,-0.120633,0.064709,0.3579,-1.8157,-9.9509
119271.0,0.038717,-0.020971,0.094051,0.6300,-1.7494,-9.5304
119287.0,-0.048709,0.036994,0.011770,0.6844,-1.8637,-9.0317
119303.0,-0.077069,0.019632,-0.108199,0.2815,-2.3215,-8.8496
119320.0,-0.051163,-0.028568,-0.140429,-0.1419,-2.4033,-9.4426
119337.0,-0.031680,-0.065158,-0.095746,-0.1553,-2.2832,-9.8137
119353.0,-0.025094,-0.055797,-0.014966,0.0887,-2.0355,-10.1499
119369.0,-0.030821,-0.017037,0.014152,0.4001,-1.9312,-10.0030
119386.0,-0.025984,0.028261,0.022774,0.4178,-1.9574,-9.9394
119402.0,-0.051004,0.053140,0.020460,0.4660,-1.9794,-9.7384
119420.0,-0.097140,0.040397,-0.003589,0.2367,-2.2007,-9.6431
119436.0,-0.077764,0.017227,-0.023834,0.1146,-2.2519,-9.6268
119453.0,-0.052970,0.003207,-0.050239,0.0340,-2.2250,-9.7498
119470.0,-0.026915,0.028570,-0.031286,0.2125,-2.0563,-9.9983
119486.0,-0.003443,0.036990,0.020267,0.2245,-2.0051,-10.1429
119503.0,-0.054471,0.041391,0.067483,0.1653,-2.0550,-10.2605
119520.0,-0.095605,0.009553,0.065761,0.0483,-2.4258,-9.9995
119536.0,-0.056955,-0.034643,0.036778,-0.0398,-2.5793,-10.0474
119553.0,0.027720,-0.038866,0.030588,0.0488,-2.4220,-10.3838
119570.0,0.038634,-0.009726,0.075983,0.3843,-2.2790,-10.6029
119587.0,0.059823,0.030229,0.158570,0.3855,-2.2509,-10.9071
119603.0,0.072278,0.061803,0.244229,0.3807,-2.1774,-11.0573
119620.0,0.070428,0.063984,0.279875,0.2061,-2.4855,-10.5836
119636.0,0.090875,0.027912,0.258475,0.0566,-2.6205,-10.3754
119653.0,0.122670,-0.010908,0.204731,0.0192,-2.7396,-10.1927
119670.0,0.115286,-0.005777,0.199096,0.2334,-2.6321,-10.4288
119687.0,0.117740,0.019303,0.246438,0.3843,-2.5699,-10.6587
119703.0,0.156298,0.035177,0.349410,0.2743,-2.5232,-11.1420
119720.0,0.158582,0.038183,0.410254,0.2378,-2.6329,-11.0445
119736.0,0.135999,0.033613,0.438321,0.2836,-2.6767,-10.8435
119753.0,0.120439,0.062681,0.491283,0.4323,-2.6829,-10.7319
119770.0,0.104296,0.086956,0.526050,0.5785,-2.5744,-10.8734
119787.0,0.108980,0.095870,0.552891,0.4494,-2.6007,-10.8041
119803.0,0.159939,0.061034,0.620884,0.2273,-2.7203,-11.0362
119820.0,0.210678,0.057985,0.685176,0.2307,-2.7632,-11.2369
119837.0,0.244573,0.076967,0.747391,0.3591,-2.6546,-11.2120
119853.0,0.324051,0.058000,0.805524,0.2456,-2.8537,-11.0781
119870.0,0.324058,0.002090,0.797514,0.0498,-3.1226,-10.5204
119887.0,0.321188,-0.039796,0.801459,0.0066,-3.2151,-10.4251
119903.0,0.387246,-0.028873,0.876962,0.2822,-2.9588,-10.8822
119920.0,0.408209,0.005663,0.910204,0.6512,-2.9639,-10.5640
119936.0,0.399867,0.048644,0.960115,0.7278,-3.0679,-10.4645
119953.0,0.306796,0.062654,0.981537,0.6250,-3.2048,-9.8985
119970.0,0.292060,0.087373,0.974761,0.7133,-3.4696,-9.8463
119986.0,0.264612,0.071427,0.965771,0.5745,-3.5246,-9.5906
120003.0,0.355704,0.010634,1.092212,0.1682,-3.7923,-10.4879
120020.0,0.451566,0.017981,1.190979,0.3391,-3.6341,-10.6265
120036.0,0.473929,0.076879,1.242245,0.6795,-3.6437,-10.2919
120053.0,0.291158,0.094501,1.269275,0.8285,-3.9037,-9.2421
120070.0,0.204503,0.032679,1.230968,0.4033,-4.4885,-8.6585
120086.0,0.262168,0.003171,1.213591,0.3847,-4.5574,-8.7321
120103.0,0.444133,-0.010231,1.197846,0.5359,-4.4788,-9.0122
120120.0,0.535740,0.018067,1.207777,0.7461,-4.5083,-8.8874
120136.0,0.471156,0.000631,1.185498,0.7462,-4.6144,-8.4738
120153.0,0.373243,-0.043886,1.181032,0.7850,-5.0389,-8.0213
120170.0,0.403087,-0.034481,1.274523,0.9949,-4.7805,-9.1572
120186.0,0.491329,-0.012982,1.359931,1.0710,-4.7157,-9.2891
120203.0,0.585262,0.031621,1.341263,1.2667,-4.8014,-8.4538
120220.0,0.437612,0.014251,1.278046,1.2794,-5.2506,-7.2739
120236.0,0.371735,-0.030415,1.364029,1.1548,-5.4504,-7.4949
120253.0,0.386939,-0.016547,1.418012,1.3217,-5.1089,-8.1567
120270.0,0.378991,0.019640,1.373357,1.6697,-5.2657,-7.0678
120286.0,0.379804,0.002759,1.289422,1.5775,-5.5119,-6.7826
120303.0,0.442961,-0.075233,1.248832,1.1809,-5.8507,-6.6379
120320.0,0.561679,-0.022951,1.391579,1.7189,-5.5460,-7.9238
120337.0,0.561655,0.093316,1.538056,2.0075,-5.2399,-7.8304
120353.0,0.521024,0.097398,1.596629,1.7380,-5.6295,-6.6614
120370.0,0.521824,0.033388,1.545967,1.1895,-6.3355,-5.5385
120386.0,0.524442,-0.009305,1.494937,1.3134,-6.3737,-5.1715
120403.0,0.605300,-0.018171,1.526556,1.4958,-6.4581,-5.2274
120420.0,0.570433,-0.029777,1.508102,1.4533,-6.6245,-4.4899
120437.0,0.515753,-0.083878,1.490893,1.2656,-6.8718,-3.9513
120453.0,0.531797,-0.101475,1.463348,1.4132,-6.9822,-3.8315
120470.0,0.600720,-0.067696,1.516264,1.8432,-6.7038,-4.2039
120486.0,0.634394,-0.120171,1.531844,1.5603,-6.8981,-4.0088
120503.0,0.697325,-0.136256,1.534874,1.6721,-7.3421,-3.3634
120519.0,0.742396,-0.098298,1.496042,2.0548,-7.3571,-2.5522
120536.0,0.571152,-0.028226,1.334372,2.3294,-7.2930,-1.7828
120553.0,0.483140,0.022556,1.252364,2.4861,-7.4564,-1.5625
120569.0,0.481293,-0.043718,1.284565,1.6472,-7.6341,-2.5172
120593.0,0.518284,-0.056128,1.359744,1.8417,-7.7265,-2.6805
120604.0,0.543913,-0.012926,1.412994,2.2709,-7.5793,-2.1931
120619.0,0.645411,0.049334,1.372352,2.3834,-7.6195,-1.4585
120636.0,0.667211,0.133002,1.301792,2.5382,-7.5916,-1.0802
120652.0,0.485135,0.166145,1.232873,2.2892,-7.9932,0.1245
120669.0,0.256511,0.101344,1.114996,1.8058,-8.4007,0.5032
120687.0,0.213553,0.050991,1.015435,1.8428,-8.5023,0.5342
120703.0,0.306750,0.014403,1.016424,1.8748,-8.5349,0.0673
120720.0,0.279808,0.019605,0.989183,2.1056,-8.5775,0.7663
120737.0,0.273562,0.063406,0.885937,2.3833,-8.5856,1.2860
120753.0,0.357459,0.152509,0.697688,2.7882,-8.6312,1.9249
120770.0,0.286652,0.163200,0.491523,2.6176,-9.0422,2.8766
120786.0,0.129740,0.083035,0.252178,2.3372,-9.3531,3.2751
120803.0,-0.109693,-0.058489,0.172448,1.8292,-9.6326,2.6751
120820.0,-0.099099,-0.007896,0.330472,2.6363,-9.3158,0.6770
120837.0,0.132452,0.139619,0.482561,3.1009,-9.1800,-0.0851
120853.0,0.360221,0.272062,0.513850,2.9824,-9.0909,0.3675
120870.0,0.371690,0.305164,0.344794,2.8965,-9.5515,2.0580
120887.0,0.208636,0.333698,0.103255,3.0258,-9.7796,2.6920
120903.0,-0.035473,0.146951,-0.193276,2.0330,-9.9944,2.9981
120919.0,-0.149662,0.025732,-0.147723,1.6701,-10.2211,1.3267
120936.0,0.025631,-0.025945,-0.021713,1.7746,-10.2026,0.1452
120953.0,0.213295,0.159021,0.140666,3.0581,-9.2229,-0.6249
120970.0,0.246608,0.300295,0.176436,3.2768,-9.0347,0.0281
120987.0,0.241299,0.307480,0.118496,2.9431,-9.3790,0.4724
121003.0,0.148009,0.099834,-0.106687,1.6391,-10.3138,1.5485
121020.0,0.019766,-0.088925,-0.270601,0.9973,-10.6009,1.8390
121043.0,-0.057192,-0.206699,-0.380163,1.3035,-10.3165,1.4545
121053.0,-0.103306,-0.084819,-0.181215,2.0675,-9.3007,0.0259
121070.0,-0.024118,0.090555,0.081569,2.9595,-8.9338,-1.6794
121086.0,0.078895,0.229101,0.270385,2.9633,-8.7999,-1.7879
121103.0,0.319911,0.239954,0.326940,2.1641,-9.3429,-1.1491
121120.0,0.266609,0.082093,0.193744,1.1669,-10.0099,0.5475
121137.0,0.057390,-0.104703,-0.011888,1.0017,-10.3329,1.4862
121153.0,-0.032975,-0.211493,-0.189027,1.2019,-10.0235,1.1414
121170.0,0.010011,-0.147389,-0.160518,2.2886,-9.3441,-0.2825
121186.0,0.076003,-0.024324,-0.004693,2.6574,-9.0155,-0.9674
121203.0,0.204208,0.135203,0.158782,2.5401,-8.7486,-1.2029
121220.0,0.174082,0.145753,0.223466,2.3502,-9.2660,-0.4552
121236.0,0.016847,0.048410,0.202333,1.9227,-9.4730,0.1769
121253.0,-0.100690,-0.099845,0.066560,1.5061,-10.0229,0.7126
121270.0,-0.053788,-0.116980,-0.039133,1.8437,-9.6190,0.5200
121286.0,0.065778,-0.037142,-0.072779,2.2188,-9.3510,0.1015
121303.0,0.078402,0.075580,-0.026915,2.6309,-9.1464,-0.3129
121320.0,-0.080109,0.080278,0.034998,2.3201,-9.4450,0.0859
121336.0,-0.258993,-0.007704,0.092297,1.9357,-9.6552,0.1927
121353.0,-0.239761,-0.095856,0.130135,1.6279,-9.9539,-0.0765
121370.0,0.008827,-0.074467,0.115069,2.0045,-9.6156,-0.6190
121386.0,0.196917,-0.013621,0.075621,2.2176,-9.5439,-0.4580
121403.0,0.090080,0.033973,-0.015567,2.3773,-9.3232,0.4944
121420.0,-0.000045,-0.032094,-0.099394,1.9378,-9.6732,0.8416
121436.0,-0.020515,-0.068040,-0.029337,1.8521,-9.5976,0.4579
121453.0,0.017165,-0.115627,0.053990,2.0114,-9.5656,-0.2637
121470.0,0.038405,-0.113407,0.058290,2.4125,-9.3509,-0.1139
121486.0,0.047221,-0.069926,0.060356,2.5081,-9.2992,0.0031
121503.0,-0.010390,-0.099948,-0.035127,2.4062,-9.6244,0.2785
121520.0,-0.045390,-0.105954,-0.106387,2.4325,-9.5337,0.4937
121536.0,-0.090333,-0.072280,-0.121074,2.6758,-9.4353,0.3045
121553.0,-0.147954,0.003238,-0.099347,2.9266,-9.1580,0.0884
121570.0,-0.087968,0.025171,-0.051555,2.6463,-9.2695,-0.4426
121586.0,0.018102,0.016300,0.017491,2.4056,-9.3646,-0.5501
121603.0,0.001733,-0.007927,0.005635,2.1882,-9.5647,-0.0872
121619.0,-0.115267,0.004260,-0.055364,2.3448,-9.4272,0.7088
121637.0,-0.167904,0.067962,-0.074562,2.5637,-9.2608,0.4956
121653.0,-0.069618,0.104773,-0.126313,2.5575,-9.2274,0.1698
121670.0,0.070037,0.062925,-0.140489,2.0216,-9.4622,-0.1257
121687.0,0.018264,-0.040695,-0.157527,1.8060,-9.5870,0.1465
121703.0,-0.090922,-0.104123,-0.242434,2.1238,-9.6103,0.8282
121720.0,-0.088728,-0.058497,-0.242508,2.6615,-9.1789,0.2973
121736.0,-0.074094,0.005311,-0.237785,2.8594,-9.0425,0.0700
121753.0,-0.020354,0.009647,-0.244024,2.4690,-9.3565,0.1597
121770.0,0.000537,-0.005775,-0.251083,2.2860,-9.5535,0.3042
121786.0,0.048355,-0.008606,-0.277829,2.2881,-9.5428,0.4027
121803.0,0.161983,0.012775,-0.291598,2.3786,-9.5445,0.3036
121820.0,0.187232,-0.029870,-0.326779,2.0313,-9.8360,0.6382
121836.0,0.120214,-0.088311,-0.422465,1.9848,-9.9139,0.8697
121853.0,-0.031488,-0.042953,-0.458962,2.3442,-9.6771,0.9288
121870.0,-0.120043,0.083037,-0.414651,2.8434,-9.3078,0.2061
121887.0,-0.181560,0.166347,-0.393947,2.7116,-9.2988,0.0886
121903.0,-0.023081,0.100911,-0.375049,1.8015,-9.8315,-0.4679
121919.0,0.134257,0.027822,-0.335571,1.4440,-10.1653,-0.7239
121936.0,0.149960,0.019150,-0.314526,1.6551,-10.1257,-0.3944
121953.0,0.170491,0.042548,-0.396370,2.1596,-9.8177,0.3587
121969.0,0.086658,0.026284,-0.525807,1.8772,-9.8909,1.1447
121987.0,0.003666,-0.063485,-0.647945,1.5794,-10.0091,0.7531
122003.0,-0.027503,-0.082608,-0.654782,1.7129,-9.8732,0.3795
122020.0,-0.121728,-0.056760,-0.578969,2.1566,-9.5461,-0.2295
122037.0,-0.150356,-0.025507,-0.523365,2.2194,-9.3149,-0.5650
122053.0,-0.077324,-0.065161,-0.554421,2.0716,-9.3904,-0.5903
122070.0,-0.038141,-0.112159,-0.672333,2.0297,-9.4050,-0.3421
122087.0,-0.193173,-0.112306,-0.741542,2.3384,-9.0208,-0.0211
122103.0,-0.421945,-0.123230,-0.790957,2.4551,-8.9724,0.0033
122120.0,-0.509752,-0.140984,-0.866621,2.4636,-8.8795,-0.6357
122136.0,-0.401186,-0.106973,-0.840897,2.6261,-8.6233,-1.7928
122153.0,-0.286288,-0.035591,-0.731128,2.8072,-8.4556,-2.3604
122170.0,-0.155996,0.052313,-0.663925,2.8172,-8.3405,-2.4117
122186.0,-0.084129,0.038065,-0.693374,2.1766,-8.5994,-2.0467
122203.0,-0.141854,-0.064652,-0.766891,1.7599,-8.8443,-1.7208
122220.0,-0.354894,-0.194307,-0.876888,1.6548,-9.0252,-1.2535
122237.0,-0.361084,-0.184437,-0.935105,2.2995,-8.4608,-2.0053
122253.0,-0.316347,-0.131527,-0.974257,2.5244,-8.1942,-2.3584
122270.0,-0.241288,-0.026532,-0.913750,2.7520,-7.9731,-3.1017
122287.0,-0.267898,-0.023069,-0.795096,2.2812,-8.1265,-3.4828
122303.0,-0.254959,-0.051676,-0.705189,2.0740,-8.2266,-3.6416
122320.0,-0.242255,-0.159143,-0.767683,1.5871,-8.3764,-3.1113
122337.0,-0.257937,-0.226986,-0.876199,1.5983,-8.3119,-2.7062
122353.0,-0.267168,-0.273293,-0.960709,1.5886,-8.2290,-2.9010
122370.0,-0.324510,-0.302777,-1.004668,1.7847,-8.0635,-3.3870
122386.0,-0.321913,-0.247187,-0.883580,2.4071,-7.7337,-4.5819
122403.0,-0.275657,-0.181525,-0.807839,2.5046,-7.5931,-4.8185
122420.0,-0.216735,-0.159179,-0.791416,2.2330,-7.6454,-4.8120
122436.0,-0.260219,-0.196956,-0.813275,1.9861,-7.9534,-4.4453
122453.0,-0.356821,-0.227342,-0.846999,1.9839,-7.9085,-4.2609
122470.0,-0.378844,-0.233196,-0.813160,2.1672,-7.6674,-4.9594
122486.0,-0.275393,-0.175408,-0.788038,2.3938,-7.4130,-5.4531
122503.0,-0.290582,-0.152115,-0.791277,2.4047,-7.4114,-5.3120
122520.0,-0.364798,-0.180736,-0.768006,2.0536,-7.6799,-5.1007
122536.0,-0.398699,-0.151399,-0.661898,2.3005,-7.3281,-5.5640
122553.0,-0.298365,-0.077583,-0.630290,2.5601,-7.1554,-5.6909
122570.0,-0.173322,-0.034922,-0.679168,2.3770,-7.0547,-5.4808
122586.0,-0.186680,-0.158102,-0.817289,1.5978,-7.5646,-4.9232
122603.0,-0.328264,-0.265520,-0.860795,1.6056,-7.6594,-4.8815
122620.0,-0.414723,-0.247422,-0.883910,2.1760,-6.9999,-5.5013
122636.0,-0.369360,-0.121745,-0.673057,2.7303,-6.6896,-6.7340
122653.0,-0.342478,-0.080654,-0.618613,2.5787,-6.6818,-6.7232
122670.0,-0.304938,-0.108810,-0.660637,2.0192,-6.9158,-6.0325
122687.0,-0.318826,-0.130285,-0.787252,2.1859,-6.8818,-5.7221
122703.0,-0.410231,-0.106102,-0.853216,2.3302,-6.6708,-5.6672
122720.0,-0.407982,-0.104619,-0.816990,2.2757,-6.5618,-6.5296
122736.0,-0.341394,-0.079985,-0.705116,2.3451,-6.4459,-7.1865
122753.0,-0.354154,0.002497,-0.619741,2.5815,-6.2623,-7.1904
122770.0,-0.415684,0.017090,-0.633038,2.2910,-6.1513,-6.5838
122786.0,-0.390908,-0.072364,-0.637295,1.6864,-6.5317,-6.9477
122803.0,-0.358867,-0.098166,-0.654994,1.6896,-6.4947,-7.0252
122820.0,-0.356389,-0.058658,-0.670163,2.0848,-6.2085,-7.0949
122836.0,-0.390026,-0.032180,-0.778144,1.8735,-6.1618,-6.6572
122853.0,-0.367109,-0.093707,-0.815341,1.6351,-6.2474,-6.8241
122870.0,-0.277237,-0.163239,-0.763501,1.3490,-6.3322,-7.9637
122887.0,-0.141441,-0.136611,-0.645546,1.9433,-5.8710,-8.3676
122903.0,-0.184534,-0.084130,-0.587803,2.1035,-5.7334,-8.0762
122920.0,-0.343608,-0.046662,-0.586844,2.2510,-5.8278,-6.9945
122936.0,-0.450464,-0.009936,-0.628455,2.0250,-5.7516,-6.9032
122953.0,-0.397163,-0.011587,-0.699617,1.8922,-5.7425,-7.0801
122970.0,-0.308443,-0.077062,-0.734875,1.3262,-5.7075,-7.4982
122987.0,-0.291937,-0.063052,-0.778880,1.8949,-5.4260,-7.6038
123003.0,-0.339844,-0.036585,-0.717702,1.8772,-5.2020,-7.8180
123020.0,-0.415112,-0.028694,-0.630826,1.7838,-5.1567,-8.3631
123036.0,-0.449508,0.033042,-0.582199,1.9534,-5.0039,-8.2058
123053.0,-0.396030,0.065424,-0.611622,1.8091,-4.9602,-8.1319
123070.0,-0.340637,0.025115,-0.627387,1.1574,-5.1182,-8.2745
123087.0,-0.243930,-0.097943,-0.658222,0.7887,-5.3501,-8.4280
123103.0,-0.278337,-0.118688,-0.743080,1.0124,-5.1161,-8.1062
123120.0,-0.394881,-0.061725,-0.781503,1.6177,-4.6483,-7.9582
123136.0,-0.512022,-0.009349,-0.602064,1.5583,-4.4900,-9.2389
123153.0,-0.429253,-0.017460,-0.458679,1.3099,-4.5270,-9.8632
123170.0,-0.278898,0.008955,-0.426656,1.2308,-4.6008,-9.5113
123186.0,-0.271457,0.043573,-0.541509,1.2588,-4.5837,-8.2172
123203.0,-0.400659,0.038068,-0.605876,1.2450,-4.6657,-7.8790
123220.0,-0.478369,0.001192,-0.604952,0.9188,-4.6703,-8.3822
123236.0,-0.371296,-0.018536,-0.585724,0.7602,-4.4665,-9.1535
123253.0,-0.284558,-0.013421,-0.610883,0.7525,-4.3310,-9.1548
123270.0,-0.259729,0.032385,-0.616758,1.2028,-4.2356,-8.9100
123286.0,-0.298680,0.062286,-0.593578,1.0101,-3.9721,-8.8931
123303.0,-0.374958,0.020643,-0.610165,0.8294,-4.0773,-8.7489
123320.0,-0.390410,-0.007892,-0.578418,0.7061,-4.1586,-9.2063
123337.0,-0.360416,0.021470,-0.551320,0.8866,-3.8511,-9.4544
123353.0,-0.347906,0.038465,-0.566867,0.9034,-3.7977,-9.3830
123370.0,-0.300173,0.030720,-0.567138,0.7389,-3.8258,-9.5086
123387.0,-0.202882,0.035047,-0.553898,0.7271,-3.6413,-9.6847
123403.0,-0.137552,0.064899,-0.515974,0.8185,-3.5246,-9.8081
123420.0,-0.134466,0.097613,-0.489663,0.8800,-3.2941,-9.5699
123437.0,-0.153292,0.145194,-0.422553,0.8835,-3.2923,-9.6959
123453.0,-0.159453,0.148836,-0.362232,0.8018,-3.3215,-9.8925
123470.0,-0.247831,0.183115,-0.315962,0.6764,-3.3097,-9.4438
123486.0,-0.334184,0.172565,-0.422851,0.4459,-3.4855,-8.8078
123503.0,-0.299848,0.195546,-0.461738,0.4902,-3.4948,-8.8647
123520.0,-0.222640,0.236321,-0.438383,0.6219,-3.1369,-9.7261
123536.0,-0.182015,0.237944,-0.368492,0.1963,-3.1785,-9.8649
123553.0,-0.171771,0.171118,-0.336518,-0.1619,-3.3486,-9.8689
123570.0,-0.134746,0.115792,-0.369503,-0.4286,-3.4852,-9.5844
123587.0,-0.196255,0.080493,-0.421836,-0.3023,-3.3522,-9.0835
123603.0,-0.228038,0.044186,-0.450006,-0.3355,-3.3027,-9.0398
123620.0,-0.191480,-0.035261,-0.471473,-0.7181,-3.3088,-9.3709
123637.0,-0.073376,-0.101775,-0.460280,-0.6217,-3.0469,-9.9605
123653.0,-0.037378,-0.080881,-0.418265,-0.3433,-2.7756,-10.0615
123670.0,-0.071702,-0.037772,-0.391259,0.0649,-2.3586,-9.9376
123686.0,-0.151587,0.000231,-0.384738,0.0633,-2.4075,-9.9314
123703.0,-0.214089,0.002429,-0.375060,-0.0980,-2.3165,-9.9795
123720.0,-0.213813,-0.017553,-0.324819,-0.3503,-2.4829,-10.4423
123736.0,-0.099514,-0.031806,-0.233337,-0.2975,-2.3887,-10.8541
123753.0,-0.030128,0.007991,-0.226155,-0.1308,-2.2898,-10.6834
123770.0,-0.035328,0.055033,-0.220415,0.1018,-2.1696,-10.2931
123787.0,-0.129668,0.074036,-0.114245,-0.1745,-2.2579,-10.6792
123803.0,-0.206570,0.038826,-0.022833,-0.2955,-2.3451,-10.7700
123820.0,-0.183083,0.015949,-0.040390,-0.4197,-2.5275,-10.3938
123836.0,-0.108310,0.020030,-0.141289,-0.2900,-2.4380,-10.1683
123853.0,-0.043061,0.012910,-0.127124,-0.2785,-2.4147,-10.3281
123870.0,0.068761,0.004916,-0.017833,-0.2704,-2.3610,-11.2931
123887.0,0.107418,0.001275,0.089173,-0.2050,-2.3484,-10.7712
123903.0,-0.012192,0.004924,0.057325,-0.1624,-2.4264,-10.0123
123920.0,-0.081079,-0.003786,0.019078,-0.1935,-2.6882,-9.4806
123936.0,-0.060923,-0.014872,-0.009718,-0.3115,-2.5522,-9.7139
123953.0,-0.002164,-0.020311,-0.046036,-0.2927,-2.5269,-9.6461
123970.0,0.059520,-0.013721,-0.035838,-0.2599,-2.4514,-9.9862
123986.0,0.131094,-0.035534,0.095130,-0.2659,-2.4660,-10.4261
124003.0,0.153348,-0.021957,0.162915,-0.1658,-2.4683,-10.3133
124020.0,0.093204,-0.014334,0.126506,-0.1851,-2.3318,-9.1460
124037.0,-0.030539,-0.039984,-0.007032,-0.1993,-2.4578,-8.4611
124053.0,-0.067212,-0.076649,-0.078386,-0.2797,-2.4594,-8.5249
124070.0,-0.014009,-0.108490,-0.046851,-0.3147,-2.3551,-9.6705
124087.0,0.085111,-0.081717,0.098717,-0.0115,-2.0307,-10.3507
124103.0,0.101912,-0.045411,0.162529,0.0708,-1.9242,-10.2120
124120.0,0.058891,-0.022688,0.128401,0.0422,-2.0569,-9.2204
124136.0,0.020244,-0.025819,0.025199,-0.0884,-2.2408,-8.8538
124153.0,0.045652,-0.056015,-0.007949,-0.1691,-2.3171,-9.0330
124170.0,0.068425,-0.070271,0.013177,-0.1547,-2.3329,-9.4713
124186.0,0.062229,-0.063479,0.025285,-0.1028,-2.2886,-9.3625
124203.0,0.061171,-0.061983,0.055515,-0.1000,-2.3058,-9.4037
124220.0,0.060525,-0.062082,0.078876,-0.0980,-2.3351,-9.4115
124236.0,0.022212,-0.022644,0.049328,0.1746,-2.2401,-9.0225
124253.0,-0.024871,0.000207,-0.018361,0.2288,-2.2612,-8.7454
124270.0,-0.023200,-0.012158,-0.093500,0.0688,-2.4340,-8.9136
124286.0,0.005677,-0.038291,-0.104214,-0.1604,-2.5040,-9.2877
124303.0,-0.002062,-0.043085,-0.072364,-0.0911,-2.4416,-9.4052
124320.0,-0.033056,-0.013128,-0.059426,0.1049,-2.3016,-9.3190
124337.0,-0.003530,0.015498,-0.075921,0.1182,-2.2743,-9.2721
124353.0,0.061752,0.013201,-0.092489,0.0154,-2.3260,-9.3550
124369.0,0.111010,-0.007910,-0.083147,-0.0730,-2.4229,-9.6033
124387.0,0.187787,-0.046598,-0.013813,-0.1508,-2.3534,-9.9361
124403.0,0.126900,-0.047623,-0.023708,-0.1167,-2.2842,-9.6685
124420.0,-0.003169,-0.056796,-0.082371,0.0581,-2.2794,-9.1114
124436.0,-0.026737,-0.035372,-0.098709,0.1821,-2.3107,-9.4583
124453.0,-0.006607,-0.001690,-0.069998,0.2936,-2.0788,-9.6868
124470.0,0.025343,0.035577,0.004285,0.2589,-1.9625,-10.0842
124487.0,0.037591,0.015524,0.055716,0.0013,-2.2404,-10.0696
124503.0,0.005701,-0.006145,0.032833,-0.0822,-2.2917,-9.7086
124520.0,-0.014393,-0.015317,-0.020538,-0.0599,-2.3905,-9.3886
124537.0,-0.000849,-0.022982,-0.029151,-0.0443,-2.4162,-9.5286
124553.0,0.035272,-0.017056,-0.034423,-0.0307,-2.3807,-9.6307
124569.0,0.033970,-0.010490,-0.039763,0.0160,-2.3309,-9.5005
124587.0,0.023699,0.002164,0.012411,0.0238,-2.3082,-9.7805
124603.0,0.007010,-0.013856,0.067581,-0.0296,-2.2908,-9.9316
124620.0,0.019103,-0.078044,0.053741,-0.2637,-2.4223,-9.6637
124636.0,0.066929,-0.091328,0.013317,-0.1249,-2.3923,-9.4703
124653.0,0.076649,-0.069183,-0.011640,0.0649,-2.3005,-9.4101
124670.0,0.023192,0.004474,-0.010429,0.4618,-2.1280,-9.3321
124687.0,-0.006525,0.039072,0.016446,0.4010,-2.0539,-9.3907
124703.0,0.006287,0.019587,0.016759,0.1573,-2.1868,-9.4171
124720.0,0.062547,-0.076707,-0.039732,-0.2852,-2.4865,-9.3724
124736.0,0.078231,-0.106983,-0.058167,-0.1148,-2.4397,-9.4233
124753.0,0.059163,-0.074699,-0.020566,0.1585,-2.2420,-9.5885
124770.0,-0.080857,-0.014581,0.022953,0.4631,-1.9779,-9.3573
124787.0,-0.123783,0.025321,0.022726,0.5044,-2.1267,-9.3784
124803.0,-0.087957,0.057622,0.012736,0.3864,-2.0915,-9.5042
124820.0,-0.035455,0.034327,-0.013212,-0.0356,-2.1882,-9.6884
124836.0,-0.034916,0.003729,-0.047542,-0.2225,-2.3815,-9.5048
124853.0,-0.004903,-0.021217,-0.064809,-0.2500,-2.4243,-9.4683
124869.0,0.018182,-0.036620,-0.039979,-0.2631,-2.4141,-9.7954
124887.0,0.028033,-0.026155,0.066309,-0.0139,-2.2676,-10.0533
124903.0,-0.011445,-0.014690,0.110901,0.0467,-2.1811,-9.9282
124919.0,-0.061456,-0.013627,0.066987,0.0693,-2.2627,-9.2724
124936.0,-0.021978,-0.048562,-0.004755,-0.1176,-2.4695,-9.3652
124953.0,0.037457,-0.051172,-0.020348,-0.0624,-2.4262,-9.5614
124970.0,0.052967,-0.014730,-0.001931,0.1390,-2.1807,-9.7330
124987.0,0.013828,-0.004271,0.023875,0.1308,-2.2672,-9.4938
125003.0,-0.059255,-0.002584,0.024310,0.1314,-2.3245,-9.3495
125020.0,-0.081081,-0.015335,0.014540,0.0829,-2.3544,-9.3289
125037.0,-0.026134,-0.038443,0.001570,-0.1248,-2.3697,-9.6307
125053.0,0.025300,-0.057470,-0.017345,-0.0892,-2.3632,-9.6569
125070.0,0.071669,-0.055053,-0.013457,0.0335,-2.2974,-9.6970
125086.0,0.056131,-0.014701,0.014278,0.2972,-2.0593,-9.6151
125103.0,-0.002897,0.011363,0.029009,0.3178,-2.0595,-9.4393
125120.0,-0.028217,0.026919,0.024772,0.3286,-2.1908,-9.3296
125137.0,0.022891,0.006857,0.000071,0.0594,-2.1967,-9.4141
125153.0,0.072859,-0.026554,0.000670,-0.0298,-2.3094,-9.5220
125170.0,0.070704,-0.039949,-0.021118,0.0947,-2.3463,-9.3972
125186.0,0.084571,-0.041671,-0.031361,0.1264,-2.2808,-9.4228
125203.0,0.074544,-0.016341,-0.029405,0.1990,-2.2351,-9.4596
125220.0,-0.013389,0.023378,-0.003092,0.3506,-2.2178,-9.4224
125236.0,-0.047109,0.006017,0.004813,0.0792,-2.4032,-9.4436
125253.0,0.011519,-0.050720,-0.009251,-0.1133,-2.5139,-9.5835
125270.0,0.105192,-0.098379,-0.016311,-0.2396,-2.4710,-9.7145
125287.0,0.092293,-0.091271,0.001301,0.0633,-2.2372,-9.6763
125303.0,0.033400,-0.078207,0.017524,0.1959,-2.2098,-9.5493
125320.0,0.011715,-0.014602,0.000931,0.4633,-2.1120,-9.5422
125336.0,0.016369,0.020987,-0.009905,0.4591,-2.1376,-9.6004
125353.0,0.020308,0.010137,0.014575,0.2442,-2.1970,-9.6754
125370.0,0.008049,-0.021398,0.047374,0.0358,-2.4216,-9.7628
125386.0,-0.007748,-0.018006,0.067194,0.1842,-2.3290,-9.8809
125403.0,-0.012326,-0.011922,0.070924,0.1974,-2.3055,-9.8825
125420.0,0.067482,-0.001801,0.044336,0.1621,-2.4324,-10.0669
125437.0,0.090419,-0.016423,0.051580,0.0482,-2.5684,-10.2238
125453.0,0.065725,-0.039078,0.084038,0.0112,-2.6794,-10.2674
125470.0,0.017256,-0.083907,0.112344,-0.0299,-2.8205,-10.5052
125486.0,0.037150,-0.051109,0.135576,0.2846,-2.7459,-10.9806
125503.0,0.082951,-0.019129,0.213857,0.4462,-2.7550,-11.4165
125520.0,0.176298,-0.063443,0.321593,0.1706,-3.0887,-11.8889
125536.0,0.275569,-0.092936,0.358622,0.0733,-3.1777,-11.8939
125553.0,0.357937,-0.103262,0.409479,0.2726,-3.2105,-11.9044
125570.0,0.348951,-0.077518,0.523741,0.6185,-3.2660,-11.9331
125587.0,0.246090,-0.080430,0.635359,0.5933,-3.2807,-11.7189
125603.0,0.195978,-0.075616,0.718554,0.6502,-3.3674,-11.7015
125620.0,0.254157,-0.091418,0.828073,0.5791,-3.3782,-11.8309
125637.0,0.316951,-0.137131,0.993128,0.2773,-3.5160,-12.5122
125653.0,0.301222,-0.275750,1.121554,-0.0714,-3.6910,-12.3231
125670.0,0.295662,-0.459647,1.053875,-0.3745,-4.0528,-11.0470
125687.0,0.267435,-0.493082,0.963622,0.0590,-3.8413,-10.3533
125703.0,0.278604,-0.464276,0.960414,0.3674,-3.7174,-10.5345
125720.0,0.425926,-0.447843,1.049945,0.5643,-3.5826,-11.3413
125737.0,0.538932,-0.447824,1.075201,0.3735,-3.6102,-11.1169
125753.0,0.577891,-0.427163,1.088537,0.5344,-3.5419,-10.9351
125770.0,0.622198,-0.429182,1.134986,0.4435,-3.4466,-10.6180
125786.0,0.752329,-0.518755,1.187320,0.1134,-3.1300,-10.5055
125803.0,0.829284,-0.371725,1.227734,1.0958,-3.4099,-10.6326
125820.0,0.796647,-0.266353,1.180338,1.6108,-3.3215,-9.3788
125837.0,0.785774,-0.178569,1.134882,1.6284,-3.3009,-8.9392
125853.0,0.748749,-0.162648,1.121408,1.6104,-3.4907,-8.7801
125870.0,0.725619,-0.215146,1.250196,1.3928,-3.9784,-9.1577
125887.0,0.696834,-0.236358,1.350375,1.4290,-3.9844,-8.8509
125903.0,0.624413,-0.187056,1.426056,1.8178,-3.9099,-8.5449
125920.0,0.490724,-0.034550,1.472406,2.3227,-3.5766,-8.0020
125936.0,0.495913,0.081789,1.440052,2.5726,-3.6673,-7.7274
125953.0,0.573932,0.105612,1.403733,2.4687,-3.9645,-7.5685
125970.0,0.534871,0.125412,1.348468,2.2212,-4.4466,-7.4338
125987.0,0.461143,0.066050,1.392168,2.0170,-4.7508,-7.2366
126003.0,0.470265,0.089317,1.435919,2.3189,-4.6579,-7.3996
126020.0,0.501336,0.180931,1.389545,2.5777,-4.3971,-7.0101
126037.0,0.464212,0.211261,1.392597,2.3379,-4.7772,-6.4462
126053.0,0.346927,0.152032,1.397314,2.2250,-5.0465,-6.1118
126070.0,0.342416,0.119118,1.412699,2.2948,-5.2161,-5.7447
126086.0,0.363659,0.232208,1.399786,3.0870,-5.0441,-5.6455
126103.0,0.362279,0.262757,1.370188,2.7132,-4.8893,-5.3290
126120.0,0.363677,0.159880,1.384354,1.8739,-5.3630,-4.7214
126136.0,0.248098,0.101786,1.316092,2.1509,-6.2698,-3.9627
126153.0,0.135172,-0.001273,1.220408,2.0168,-6.2884,-3.5322
126170.0,0.199516,0.024604,1.105234,2.4524,-6.1154,-3.8684
126187.0,0.170538,0.099977,1.003310,2.8412,-6.2134,-3.3773
126203.0,0.202715,0.143021,1.008873,3.0765,-6.5791,-3.6993
126219.0,0.346201,0.047211,1.062831,2.1310,-6.5841,-4.2187
126237.0,0.414691,0.015720,1.140314,2.3311,-6.9860,-4.2835
126253.0,0.412149,0.061200,1.211484,2.7708,-6.6110,-3.5301
126270.0,0.318695,0.089532,1.131094,2.5328,-6.5305,-2.7197
126287.0,0.239422,0.095352,0.998380,3.1105,-7.8103,-2.2086
126304.0,0.297693,0.113088,0.860859,2.8919,-7.5396,-2.6023
126320.0,0.476735,0.171418,0.866526,2.8852,-7.3734,-3.2419
126337.0,0.556842,0.159045,0.928751,2.6778,-7.7997,-3.5144
126353.0,0.544154,0.050269,0.986221,2.4337,-8.4806,-2.7770
126370.0,0.461428,0.048394,0.957300,2.5985,-8.4303,-2.2054
126387.0,0.391997,0.082414,0.918408,2.8460,-8.2153,-1.7738
126403.0,0.330289,0.113251,0.919270,2.9829,-8.2772,-1.7627
126420.0,0.454226,0.143698,0.991387,3.0417,-8.5913,-2.1476
126436.0,0.557661,0.146794,0.942630,2.7013,-8.5666,-1.5151
126453.0,0.617255,0.169137,0.858965,2.8011,-8.6791,-1.0089
126470.0,0.598086,0.181763,0.737723,3.0620,-9.0535,-0.3214
126487.0,0.439501,0.165093,0.680871,2.9016,-9.1996,0.1112
126503.0,0.371190,0.167614,0.721507,2.8801,-9.1735,-0.1454
126520.0,0.323036,0.166209,0.729757,2.9348,-9.3061,-0.3721
126536.0,0.300517,0.172095,0.637071,3.0613,-9.3815,0.2716
126553.0,0.298457,0.225332,0.506653,3.2819,-9.4014,0.6587
126570.0,0.237882,0.194070,0.290241,2.8235,-9.5174,1.2357
126587.0,0.270620,0.142531,0.180134,2.4202,-9.8031,0.7825
126603.0,0.423912,0.101808,0.142189,2.3329,-9.9032,0.2963
126620.0,0.397003,0.083850,0.227972,2.3876,-9.6833,-0.2146
126636.0,0.200364,0.100344,0.256864,2.9271,-9.6519,0.5046
126653.0,0.091589,0.225511,0.317857,3.2374,-9.5645,0.4045
126670.0,0.144891,0.293794,0.174164,2.7752,-9.2641,0.5939
126686.0,0.267011,0.277853,0.040204,2.2559,-9.5876,0.3900
126703.0,0.363621,0.175298,-0.047310,1.8501,-9.7053,0.2619
126720.0,0.348744,0.023407,-0.118058,1.7148,-9.9539,-0.0371
126737.0,0.167805,0.008950,-0.157327,2.4457,-9.5512,0.0875
126753.0,-0.007678,0.051462,-0.129168,2.6640,-9.2482,-0.1044
126770.0,-0.116110,0.086487,-0.036842,2.6399,-9.0956,-0.9037
126787.0,-0.055667,0.079789,0.055952,2.2688,-9.3152,-1.6026
126803.0,0.095734,0.058696,0.123562,2.1431,-9.3633,-1.8949
126820.0,0.156068,0.015907,0.071615,2.0198,-9.3803,-1.1759
126837.0,0.124154,0.000847,-0.012114,2.2559,-9.4543,-0.6407
126853.0,0.008582,-0.041299,-0.063171,2.3035,-9.4424,-0.5363
126870.0,-0.140282,-0.113488,-0.052704,2.1407,-9.7160,-0.7060
126886.0,-0.103950,-0.085761,-0.011068,2.5136,-9.3826,-1.4154
126903.0,-0.006908,0.003454,0.037346,2.7366,-9.1342,-1.6922
126920.0,0.015180,0.056102,0.097865,2.7969,-9.2080,-1.6427
126937.0,-0.051341,0.021938,0.118599,2.3550,-9.6061,-1.1518
126953.0,-0.081857,-0.040178,0.090022,2.1838,-9.7389,-0.9478
126970.0,-0.032375,-0.058128,0.038970,2.3622,-9.6019,-0.9459
126986.0,-0.026228,-0.071086,0.068926,2.4482,-9.4519,-1.2790
127003.0,-0.068546,-0.074057,0.082127,2.5250,-9.4810,-1.1380
127020.0,0.018092,-0.017077,0.071737,2.8253,-9.3851,-1.2510
127036.0,0.049962,0.051321,0.048848,2.9770,-9.0803,-1.0392
127053.0,-0.017452,0.060161,0.070494,2.8802,-9.1946,-1.0442
127070.0,-0.124331,-0.030641,0.123835,2.3873,-9.5508,-1.0032
127087.0,-0.102510,-0.082595,0.096737,2.1890,-9.5482,-0.8960
127103.0,-0.043703,-0.085500,0.063661,2.3756,-9.4236,-0.9052
127120.0,0.061711,-0.049877,0.040310,2.7384,-9.2698,-1.0002
127137.0,0.076590,-0.024960,0.027621,2.8121,-9.1708,-0.8004
127153.0,0.051330,0.012241,0.060610,2.9592,-9.1554,-0.8338
127170.0,-0.020757,0.029874,0.074411,2.9468,-9.0938,-0.7570
127186.0,-0.027091,-0.005004,0.067500,2.5934,-9.3959,-0.7826
127203.0,-0.009641,-0.032873,0.056881,2.5184,-9.4227,-0.8049
127220.0,0.045399,-0.037381,-0.033351,2.8457,-9.2187,-0.7455
127236.0,0.076069,0.045428,-0.063328,3.0691,-9.1227,-0.5477
127253.0,0.065488,0.047119,-0.070216,2.9938,-9.2451,-0.7506
127270.0,0.011770,0.034614,0.038551,2.7632,-9.2692,-1.0855
127286.0,-0.032253,0.011947,0.086618,2.5973,-9.2677,-1.1413
127303.0,-0.029994,0.017597,0.028811,2.6830,-9.3230,-0.7519
127320.0,0.091589,0.069864,-0.116495,2.8591,-9.1770,-0.4904
127337.0,0.141659,0.061347,-0.159471,2.5877,-9.3206,-0.6937
127353.0,0.081936,0.025218,-0.129061,2.3746,-9.4029,-0.7367
127370.0,-0.044871,0.009100,-0.081213,2.5012,-9.3875,-0.7027
127386.0,-0.037795,0.027602,-0.038506,2.7143,-9.2174,-1.0543
127403.0,0.060601,0.046202,-0.041089,2.7207,-9.2374,-1.2300
127420.0,0.131884,0.049055,-0.121710,2.6344,-9.3356,-0.9270
127436.0,0.056374,0.043394,-0.139570,2.6395,-9.4725,-0.7636
127453.0,-0.041306,0.050128,-0.069436,2.6570,-9.4578,-1.0754
127469.0,-0.057419,0.058242,0.069004,2.5902,-9.4263,-1.6942
127486.0,-0.010223,0.063891,0.104169,2.3897,-9.4095,-1.6252
127503.0,0.037850,0.038621,0.082342,2.2902,-9.4906,-1.3773
127520.0,0.142209,-0.006776,0.036613,2.2200,-9.6795,-1.1586
127536.0,0.106004,-0.035826,0.019100,2.2710,-9.6320,-0.8775
127553.0,0.007037,-0.048763,0.054765,2.3674,-9.6325,-0.8680
127570.0,-0.079083,-0.040897,0.090189,2.5875,-9.4101,-0.9523
127587.0,-0.041882,0.005465,0.110173,2.7828,-9.2102,-1.0687
127603.0,0.016162,0.021216,0.123856,2.6683,-9.2085,-1.1902
127620.0,0.071594,-0.013847,0.112975,2.4231,-9.4619,-0.9566
127636.0,0.050910,-0.031167,0.067532,2.4641,-9.3525,-0.4875
127653.0,0.000383,-0.019962,0.022086,2.5756,-9.2566,-0.3162
127670.0,-0.089367,0.017520,-0.001190,2.9351,-9.1605,-0.3623
127687.0,-0.099913,0.016525,0.015449,2.7578,-9.2129,-0.6687
127703.0,-0.053850,0.011836,-0.011909,2.6685,-9.2567,-0.7889
127720.0,0.026631,0.022463,-0.043285,2.6290,-9.2820,-0.8170
127736.0,0.001649,0.018811,-0.001718,2.6255,-9.3058,-0.9815
127753.0,-0.057514,0.009392,0.022181,2.6062,-9.3830,-0.9052
127770.0,-0.039035,0.033162,0.028899,2.6992,-9.3839,-0.8232
127786.0,0.016511,0.047384,0.016954,2.6365,-9.2597,-0.9686
127803.0,-0.008831,0.024739,-0.021488,2.4801,-9.4113,-0.7379
127820.0,0.015044,0.000855,-0.036583,2.3926,-9.5674,-0.8574
127836.0,0.009703,-0.012182,-0.036869,2.4098,-9.5357,-0.9542
127853.0,0.030739,0.000804,0.026764,2.4989,-9.4689,-1.1750
127870.0,-0.030482,0.044709,0.097609,2.6824,-9.3316,-1.2073
127887.0,-0.049331,0.050923,0.111536,2.5774,-9.3664,-1.0404
127903.0,-0.020568,0.014904,0.078787,2.3273,-9.4130,-0.9264
127920.0,0.021719,-0.055829,0.037182,2.1207,-9.6501,-0.7738
127937.0,0.069155,-0.076349,0.001220,2.3755,-9.4993,-0.7341
127953.0,0.066237,-0.069078,-0.037592,2.4775,-9.3920,-0.6125
127970.0,-0.007529,-0.007879,-0.007965,2.7571,-9.2180,-0.5198
127987.0,-0.054777,0.041371,0.056635,2.8739,-9.0981,-0.9276
128003.0,-0.107660,0.039211,0.058325,2.7385,-9.2614,-0.7286
128020.0,-0.103206,-0.034296,-0.009282,2.2018,-9.6506,-0.3656
128036.0,-0.038354,-0.069194,-0.041256,2.3150,-9.6804,-0.6773
128053.0,-0.007246,-0.030764,-0.026863,2.5512,-9.4960,-0.8618
128070.0,-0.050839,0.051864,0.021854,2.9130,-9.2895,-0.8281
128087.0,-0.110891,0.058383,0.017595,2.6152,-9.5686,-0.3261
128103.0,-0.153672,0.018713,-0.039352,2.3453,-9.7386,-0.0599
128120.0,-0.123409,-0.001181,-0.103742,2.2971,-9.7061,0.0329
128137.0,-0.077877,0.028113,-0.105511,2.5989,-9.5994,-0.1212
128153.0,-0.049692,0.029526,-0.098087,2.5639,-9.5874,-0.0640
128170.0,-0.045250,-0.007231,-0.078143,2.2552,-9.8508,0.2448
128187.0,-0.094098,-0.045557,-0.110740,2.1650,-9.8893,0.8939
128203.0,-0.137056,-0.050599,-0.188042,2.3984,-9.8545,1.2374
128220.0,-0.105360,-0.047139,-0.311340,2.5081,-9.5840,1.3351
128237.0,-0.052491,-0.052844,-0.356812,2.6857,-9.5158,1.1085
128253.0,-0.066998,-0.060399,-0.352643,2.6743,-9.4590,0.9888
128270.0,-0.196419,-0.087042,-0.432084,2.6990,-9.4330,1.5368
128286.0,-0.392410,-0.087243,-0.515510,2.7025,-9.2686,1.7753
128303.0,-0.538390,-0.046103,-0.604635,2.5941,-9.1509,1.7252
128320.0,-0.543247,0.052103,-0.693356,2.8753,-8.7544,0.8039
128337.0,-0.389330,0.044628,-0.728692,2.2529,-8.8701,-0.1927
128353.0,-0.310872,-0.023293,-0.808050,1.9448,-9.0694,-0.2210
128370.0,-0.363247,-0.098101,-0.902947,1.8470,-9.1586,0.0002
128387.0,-0.409539,-0.081554,-0.920768,2.2923,-8.5141,-0.5691
128403.0,-0.420159,-0.038655,-0.938596,2.4217,-8.3616,-0.8263
128420.0,-0.387813,-0.026856,-0.951882,2.3046,-8.3188,-1.2870
128436.0,-0.421123,-0.035704,-0.968761,2.2199,-8.3659,-1.4334
128453.0,-0.487179,-0.001499,-1.016027,2.4535,-8.2378,-1.3276
128470.0,-0.493854,-0.009812,-1.065072,2.2075,-7.9281,-1.6409
128486.0,-0.411513,-0.115366,-1.062692,1.4555,-8.1879,-2.2907
128503.0,-0.336100,-0.207346,-1.077668,1.4458,-8.2500,-2.4307
128520.0,-0.344240,-0.146388,-1.160905,2.2661,-7.5566,-2.1798
128537.0,-0.566525,-0.052253,-1.237614,2.8662,-6.9285,-1.7213
128553.0,-0.687895,0.064574,-1.236370,2.9509,-6.7265,-2.1135
128570.0,-0.699048,0.122298,-1.126799,2.4276,-6.5173,-3.5504
128586.0,-0.658810,-0.035006,-1.064796,0.9855,-7.0434,-4.0863
128603.0,-0.691915,-0.253410,-1.139644,0.5552,-7.4048,-3.7667
128620.0,-0.632384,-0.348350,-1.270654,1.2164,-6.9644,-3.8512
128636.0,-0.512114,-0.246737,-1.335904,2.3589,-6.0498,-4.7076
128653.0,-0.429514,-0.134030,-1.280744,2.6785,-5.8734,-5.4375
128670.0,-0.571365,-0.032818,-1.193755,2.5096,-5.9444,-5.6841
128687.0,-0.710032,0.019243,-1.156136,2.2672,-6.0591,-5.5622
128703.0,-0.742790,-0.014739,-1.172354,1.7229,-6.1708,-5.6120
128720.0,-0.520064,-0.101913,-1.209387,1.3240,-6.5799,-6.3594
128736.0,-0.262847,-0.138853,-1.283717,1.3478,-6.4326,-6.7834
128753.0,-0.218874,-0.118199,-1.369619,1.7027,-6.2634,-6.5974
128770.0,-0.337681,0.037923,-1.344974,2.5365,-5.8212,-6.7105
128787.0,-0.422628,0.178431,-1.232865,2.7031,-5.6395,-7.4934
128803.0,-0.488204,0.230630,-1.051050,2.4237,-5.7931,-7.8648
128820.0,-0.498417,0.147318,-0.987937,1.2935,-6.2637,-7.6348
128836.0,-0.448022,0.088421,-1.090184,1.1579,-6.4139,-6.8748
128853.0,-0.403374,0.059917,-1.215541,1.1355,-6.1738,-6.7775
128870.0,-0.351466,0.033296,-1.290892,1.2154,-5.8971,-7.0846
128886.0,-0.320247,0.053246,-1.309904,1.5495,-5.5266,-7.7779
128903.0,-0.296286,0.092232,-1.223829,1.5627,-5.3168,-8.1784
128920.0,-0.502726,0.205996,-1.000910,1.9870,-5.1338,-8.6414
128936.0,-0.618417,0.295474,-0.893852,1.9496,-5.1808,-8.3734
128953.0,-0.600211,0.282940,-0.914291,1.3548,-5.3439,-8.1318
128969.0,-0.394578,0.137692,-1.089488,0.2821,-5.8059,-7.7648
128986.0,-0.240700,0.038031,-1.235104,0.1531,-5.6187,-7.6951
129003.0,-0.213139,-0.031247,-1.240961,0.2439,-5.3947,-7.9859
129020.0,-0.300934,-0.019746,-1.037723,0.9113,-4.7568,-8.9316
129036.0,-0.396948,0.092098,-0.955695,1.6028,-4.2053,-8.7966
129053.0,-0.474136,0.210795,-0.920905,1.7433,-4.1860,-8.6731
129070.0,-0.522164,0.234284,-0.960735,1.0437,-4.2955,-8.5696
129087.0,-0.488208,0.158718,-1.014212,0.0307,-4.8007,-9.0951
129103.0,-0.327785,0.046905,-1.016015,-0.3268,-4.9488,-9.6061
129120.0,-0.268850,-0.047252,-0.982074,-0.3985,-4.7972,-9.8720
129136.0,-0.346039,-0.015470,-0.948757,0.3938,-4.2490,-9.4146
129153.0,-0.351681,0.027777,-0.946038,0.6207,-3.9359,-9.5289
129170.0,-0.202531,0.066800,-0.906619,0.4353,-3.8035,-10.2201
129187.0,-0.125219,0.056746,-0.864387,0.2173,-3.8027,-10.4452
129203.0,-0.257269,0.052321,-0.829180,0.1643,-3.7664,-10.0741
129220.0,-0.546221,0.090563,-0.708817,0.4402,-3.5409,-9.7921
129236.0,-0.574934,0.109770,-0.675310,0.3041,-3.4887,-10.1866
129253.0,-0.373203,0.131332,-0.696609,-0.1294,-3.6084,-10.6723
129269.0,-0.214392,0.085449,-0.710009,-0.3273,-3.6781,-10.7301
129287.0,-0.220806,0.028816,-0.673339,-0.4628,-3.8249,-10.4965
129303.0,-0.295500,0.013027,-0.499513,-0.1462,-3.4907,-10.7733
129320.0,-0.334361,0.019749,-0.429602,-0.0974,-3.3357,-10.7293
129337.0,-0.292552,0.016930,-0.450687,-0.1844,-3.5229,-10.5397
129353.0,-0.254004,0.010834,-0.453407,-0.1700,-3.4342,-10.5637
129369.0,-0.300914,0.038997,-0.412849,0.0144,-3.3056,-10.5563
129386.0,-0.322012,0.067459,-0.389478,0.1110,-3.1797,-10.6139
129403.0,-0.238169,0.068886,-0.421560,-0.1703,-3.3098,-10.7667
129420.0,-0.149676,0.052235,-0.371220,-0.3416,-3.3062,-10.9871
129436.0,-0.077231,0.042302,-0.242875,-0.3201,-3.1181,-11.4901
129453.0,-0.076617,0.058014,-0.093501,-0.1947,-2.8445,-11.0977
129470.0,-0.117658,0.062725,-0.040460,-0.1619,-2.8675,-10.7883
129486.0,-0.179545,0.054927,-0.109413,-0.2674,-2.9796,-9.8849
129503.0,-0.159780,0.033493,-0.214144,-0.5451,-3.0725,-9.9292
129520.0,-0.089311,0.007516,-0.195615,-0.5780,-3.0287,-10.2609
129536.0,-0.029163,0.003747,-0.102676,-0.4899,-2.7418,-10.7456
129553.0,-0.002598,0.029210,0.018322,-0.1930,-2.5178,-10.5652
129570.0,0.012055,0.029271,0.048271,-0.2726,-2.5289,-10.3260
129587.0,0.012049,0.016619,0.002336,-0.4366,-2.6146,-9.7028
129603.0,-0.005633,0.006559,-0.034798,-0.4383,-2.6577,-9.5966
129620.0,-0.025227,-0.000453,-0.042407,-0.3968,-2.6252,-9.6335
129637.0,-0.019662,0.008185,-0.050514,-0.2863,-2.5582,-9.6254
129653.0,0.015183,0.046873,-0.025860,-0.0877,-2.4632,-9.8765
129670.0,0.018260,0.070219,0.036518,-0.1483,-2.4279,-9.9578
129687.0,-0.018020,0.046052,0.104028,-0.4691,-2.6128,-9.9062
129703.0,-0.052107,-0.035763,0.063488,-0.7453,-2.8500,-9.3110
129720.0,-0.002565,-0.055534,-0.029409,-0.6279,-2.8403,-9.0978
129736.0,0.024384,-0.035661,-0.066467,-0.2089,-2.6019,-9.3387
129753.0,0.060879,-0.000842,0.021640,-0.1604,-2.4995,-9.9941
129770.0,0.068254,0.014283,0.113971,-0.2188,-2.4578,-10.0898
129787.0,0.015247,0.002177,0.125939,-0.4314,-2.5459,-9.5041
129803.0,-0.047338,-0.033175,0.060926,-0.4917,-2.7827,-9.0067
129820.0,-0.064268,-0.042230,0.041665,-0.4386,-2.7652,-9.0456
129836.0,-0.028491,-0.028910,0.058089,-0.2943,-2.5205,-9.4605
129853.0,0.040574,-0.010202,0.065668,-0.3273,-2.4937,-9.5476
129870.0,0.056898,-0.013434,0.058527,-0.3718,-2.5441,-9.4409
129887.0,0.035911,-0.025798,0.031565,-0.4296,-2.6574,-9.1653
129903.0,-0.008987,-0.054254,-0.028347,-0.5375,-2.6637,-8.9542
129920.0,-0.006047,-0.064446,-0.050241,-0.4654,-2.6601,-9.0592
129936.0,0.011322,-0.056059,-0.024494,-0.3977,-2.5726,-9.5146
129953.0,0.002637,-0.053363,0.033071,-0.3672,-2.4579,-9.5859
129970.0,-0.020841,-0.027261,0.062076,-0.2286,-2.4825,-9.5104
129987.0,0.034594,0.030643,0.102738,-0.0970,-2.4014,-9.6901
130003.0,0.056704,0.040018,0.097457,-0.3276,-2.4611,-9.4360
130020.0,0.003086,-0.012244,0.048889,-0.5363,-2.6701,-9.0876
130037.0,-0.001431,-0.055639,-0.029152,-0.5131,-2.7860,-8.8508
130053.0,0.005585,-0.025046,-0.044069,-0.1951,-2.4939,-9.1274
130070.0,-0.062216,0.029459,-0.018357,-0.0642,-2.4175,-9.2172
130087.0,-0.099938,0.046314,0.057551,-0.1248,-2.5902,-9.4973
130103.0,-0.014920,0.009765,0.102249,-0.6289,-2.7295,-9.9008
130120.0,0.042075,-0.012648,0.063412,-0.6243,-2.7809,-9.7027
130136.0,0.057614,-0.030553,-0.020418,-0.5032,-2.7625,-9.1358
130153.0,0.005210,-0.047252,-0.045266,-0.4461,-2.7563,-9.0622
130170.0,-0.028127,-0.050419,-0.053496,-0.3422,-2.7310,-9.1544
130187.0,-0.031665,0.003054,0.008202,-0.1080,-2.5519,-9.5265
130203.0,-0.042936,0.024565,0.084599,-0.1653,-2.4644,-9.7634
130220.0,-0.012929,0.015229,0.109569,-0.2613,-2.5512,-9.7474
130237.0,0.033678,0.002131,0.017989,-0.3479,-2.7197,-9.1592
130253.0,0.014001,-0.008291,-0.067521,-0.4046,-2.7462,-8.7489
130270.0,-0.035154,-0.016099,-0.077810,-0.3490,-2.8190,-8.8463
130287.0,-0.040798,-0.013006,0.016882,-0.3244,-2.6483,-9.6120
130303.0,-0.032864,0.005659,0.082428,-0.2319,-2.5221,-9.8237
130320.0,-0.010658,0.030664,0.064724,-0.1480,-2.5425,-9.6269
130337.0,-0.029927,0.024953,0.012471,-0.3433,-2.6282,-9.2133
130353.0,-0.019001,-0.003446,-0.018189,-0.5222,-2.8433,-9.2684
130370.0,0.046385,-0.035403,-0.043472,-0.5454,-2.8636,-9.4537
130387.0,0.120217,-0.041468,-0.056910,-0.4987,-2.7538,-9.5467
130403.0,0.097829,-0.029782,-0.020902,-0.2737,-2.6294,-9.5312
130420.0,0.049654,0.001867,0.022604,-0.1778,-2.5649,-9.5060
130436.0,-0.018569,0.027319,0.057831,-0.2279,-2.6023,-9.4739
130453.0,-0.051309,-0.002307,0.009751,-0.5263,-2.8053,-9.0820
130470.0,-0.006699,-0.055385,-0.046091,-0.6021,-2.9682,-9.0562
130486.0,0.051797,-0.080122,-0.056653,-0.5921,-2.8099,-9.4560
130503.0,0.067281,-0.044466,-0.016201,-0.2376,-2.5771,-9.7287
130520.0,0.060515,-0.014079,0.035857,-0.1725,-2.5262,-9.7679
130537.0,-0.011952,-0.011653,0.044700,-0.3314,-2.6305,-9.4044
130553.0,-0.065162,-0.011290,0.019270,-0.2382,-2.7376,-9.1619
130570.0,-0.057522,0.006699,0.033239,-0.1881,-2.6873,-9.3212
130587.0,0.001268,-0.018549,0.051908,-0.4449,-2.6450,-9.6910
130603.0,0.079431,-0.066282,0.026752,-0.6711,-2.9000,-9.5445
130619.0,0.118668,-0.069339,0.001758,-0.6009,-2.8044,-9.4306
130637.0,0.037920,-0.013893,-0.020526,-0.1127,-2.5775,-9.0978
130653.0,-0.048183,0.013579,-0.007094,0.0192,-2.5991,-9.1334
130670.0,-0.075572,0.029581,0.009078,-0.1007,-2.6049,-9.2488
130687.0,-0.018311,0.001737,0.013392,-0.3056,-2.7221,-9.5666
130703.0,0.040992,-0.027845,0.007706,-0.5255,-2.8564,-9.6229
130720.0,0.073302,-0.041749,0.005953,-0.4745,-2.8148,-9.5880
130736.0,0.038223,-0.032951,-0.004473,-0.3533,-2.6667,-9.3621
130753.0,-0.010696,-0.024932,-0.003454,-0.2616,-2.7074,-9.2033
130770.0,-0.044517,-0.019500,0.007307,-0.2390,-2.7125,-9.1943
130786.0,-0.009878,-0.022773,0.008568,-0.2532,-2.6386,-9.3987
130803.0,0.049150,-0.010722,0.002534,-0.1564,-2.5706,-9.4703
130820.0,0.081488,-0.024755,-0.005566,-0.2234,-2.5637,-9.4757
130837.0,0.030793,-0.048817,-0.006669,-0.3817,-2.6788,-9.1237
130853.0,0.018090,-0.025726,0.015097,-0.1499,-2.6267,-9.3580
130870.0,-0.016670,0.014830,0.019748,-0.0943,-2.5405,-9.2787
130887.0,-0.077830,0.050476,0.012120,-0.0030,-2.6609,-9.1149
130903.0,-0.059539,0.032126,-0.008267,-0.3341,-2.8238,-9.2917
130920.0,0.006922,-0.037304,-0.037263,-0.5926,-2.9027,-9.4417
130936.0,0.035543,-0.104460,-0.075283,-0.7305,-3.0133,-9.3313
130953.0,0.030694,-0.063953,-0.043485,-0.1021,-2.6356,-9.5817
130970.0,-0.009204,0.006619,-0.009679,0.0726,-2.4636,-9.5937
130987.0,0.003697,0.047273,0.030745,0.0458,-2.5627,-9.7142
131003.0,-0.016037,0.038137,0.002305,-0.1942,-2.6749,-9.3925
131020.0,-0.034431,0.001919,-0.034258,-0.2357,-2.7927,-9.2690
131036.0,-0.004930,-0.064517,-0.024913,-0.5490,-2.9839,-9.6096
131053.0,0.039467,-0.060014,0.018295,-0.2848,-2.8527,-10.1372
131070.0,0.055070,-0.012418,0.041173,-0.0935,-2.7060,-10.2030
131087.0,0.023839,0.027201,-0.006045,0.0221,-2.6881,-10.0450
131103.0,0.074251,-0.000649,-0.022937,-0.1493,-3.1216,-10.7554
131120.0,0.201813,-0.036927,-0.001600,-0.2548,-3.2073,-11.3243
131136.0,0.326119,-0.065118,0.014408,-0.2257,-3.2117,-11.8685
131153.0,0.372458,-0.024818,0.040581,0.2251,-3.1593,-12.2775
131170.0,0.378733,0.021881,0.170424,0.3142,-3.0863,-12.6611
131186.0,0.303629,0.036710,0.393251,0.2077,-3.1901,-13.2845
131203.0,0.338809,0.033189,0.573017,0.0199,-3.3790,-13.7640
131220.0,0.469737,0.031314,0.745897,0.0211,-3.3462,-13.9784
131236.0,0.515259,0.059601,0.817115,0.1673,-3.2691,-13.0644
131253.0,0.484573,0.078903,0.875568,0.3439,-3.3529,-12.5179
131270.0,0.430291,0.092201,0.976175,0.2626,-3.3519,-12.4623
131286.0,0.440852,0.104495,1.160937,0.2426,-3.4731,-12.5800
131303.0,0.473085,0.063559,1.293406,-0.2276,-3.5638,-12.3644
131320.0,0.515576,0.018118,1.425667,-0.3220,-3.6839,-12.2930
131336.0,0.490288,0.022348,1.506846,-0.0130,-3.6428,-11.4820
131353.0,0.419057,0.033001,1.559200,0.0254,-3.5026,-10.6479
131370.0,0.325098,-0.007041,1.529244,-0.0582,-3.7115,-10.1535
131387.0,0.350059,-0.115617,1.552444,-0.4594,-4.0586,-10.0280
131403.0,0.326873,-0.139592,1.596712,-0.0352,-3.9561,-10.0339
131420.0,0.422515,-0.145378,1.669643,0.1806,-3.7647,-9.9932
131436.0,0.538585,-0.087586,1.763209,0.2776,-3.4720,-10.0314
131453.0,0.492322,-0.125485,1.877783,-0.0371,-3.8194,-9.2428
131470.0,0.436354,-0.185299,2.023682,-0.0341,-4.1602,-9.0338
131486.0,0.143481,-0.315327,2.050197,0.0413,-4.3622,-7.6065
131503.0,-0.004528,-0.461639,2.025168,0.1058,-4.8201,-6.9538
131523.0,0.172387,-0.585497,1.963713,0.2321,-4.9608,-7.1213
131537.0,0.632203,-0.557276,1.880534,0.5029,-4.5294,-7.5196
131553.0,0.813018,-0.501758,1.836222,0.7944,-4.1786,-6.8934
131569.0,0.713302,-0.461054,1.820656,0.9424,-4.3441,-6.2942
131587.0,0.378737,-0.390854,1.965405,1.4998,-4.8915,-5.7413
131603.0,0.020563,-0.359192,2.078462,1.5226,-5.1546,-4.9751
131620.0,-0.187420,-0.356673,2.126477,1.6492,-5.4390,-4.6865
131637.0,-0.194635,-0.396067,2.000111,1.4738,-5.8417,-4.0677
131653.0,-0.154903,-0.447150,1.885906,1.1751,-6.0406,-3.8708
131670.0,-0.006916,-0.474930,1.847229,1.2381,-6.0974,-4.1355
131687.0,0.156297,-0.471671,1.806589,1.5589,-6.1785,-4.0281
131703.0,0.320465,-0.435621,1.636050,1.9151,-6.4468,-3.0085
131720.0,0.390917,-0.368792,1.412005,2.1489,-6.5028,-2.3908
131736.0,0.125516,-0.392265,1.248287,1.8700,-6.8265,-1.6673
131753.0,-0.057219,-0.479354,1.309909,1.6828,-7.3934,-2.3610
131770.0,0.040620,-0.524878,1.378039,1.7635,-7.3818,-2.9600
131786.0,0.446317,-0.407635,1.264457,2.4897,-7.0901,-3.2302
131803.0,0.637358,-0.269849,1.072484,3.0142,-7.0241,-2.0479
131820.0,0.666157,-0.183135,0.890623,3.1445,-7.1554,-1.6960
131836.0,0.621520,-0.167183,0.807291,2.9148,-7.4684,-1.7359
131853.0,0.545424,-0.215016,0.839877,2.5049,-7.9330,-2.0767
131870.0,0.554556,-0.171045,0.853265,2.9910,-8.0058,-2.2501
131886.0,0.574148,0.019144,0.798995,3.7742,-7.6733,-1.8507
131903.0,0.578554,0.095306,0.743414,3.4113,-7.9414,-1.3761
131920.0,0.575922,0.088810,0.713685,2.9957,-8.2509,-1.3410
131936.0,0.461794,0.016813,0.712322,2.5741,-8.6531,-1.2166
131953.0,0.419073,0.005293,0.750151,2.7864,-8.8149,-1.2749
131970.0,0.426250,0.038082,0.756759,3.0270,-8.7243,-1.4439
131987.0,0.563090,0.056765,0.704387,2.9592,-8.6615,-1.2677
132003.0,0.634775,0.014518,0.679709,2.4539,-9.0065,-0.9360
132020.0,0.554635,-0.028923,0.639159,2.5069,-9.0866,-0.4256
132036.0,0.413645,-0.012064,0.596068,2.8323,-9.0188,0.0693
132053.0,0.417247,0.075903,0.633531,3.4084,-8.6585,-0.3439
132070.0,0.447000,0.168351,0.685646,3.4777,-8.5419,-0.4746
132086.0,0.577888,0.227140,0.642408,3.1759,-8.5864,-0.0678
132103.0,0.760263,0.195198,0.485414,2.6086,-8.8915,0.7017
132120.0,0.894975,0.058087,0.276521,2.2706,-9.0978,0.9517
132136.0,0.873535,-0.264496,0.129152,1.3849,-9.9716,1.4878
132153.0,0.723501,-0.382116,0.202778,2.1766,-9.8096,1.1688
132170.0,0.479662,-0.340888,0.244546,2.7448,-9.3363,1.3451
132186.0,0.246270,-0.089334,0.214534,4.1209,-8.7245,1.7597
132203.0,0.297212,0.123743,0.146803,4.3983,-8.6446,1.5172
132220.0,0.400536,0.212380,0.105003,3.9144,-8.7393,1.2854
132236.0,0.458791,0.039567,0.116470,2.5884,-9.8032,1.2525
132253.0,0.383196,-0.142574,0.050624,2.0958,-10.2581,1.9604
132270.0,0.167549,-0.216135,-0.060521,2.5419,-10.1010,2.4529
132286.0,-0.101830,-0.099456,-0.122223,3.7629,-9.3652,2.1512
132303.0,-0.193900,0.087791,-0.074110,4.3096,-8.5750,0.9816
132319.0,-0.082410,0.211070,0.007916,4.0775,-8.6235,0.3072
132337.0,0.039702,0.180002,0.044903,3.2593,-9.1586,0.0353
132353.0,-0.025913,0.091598,-0.017904,2.7322,-9.6612,0.7862
132370.0,-0.128757,0.026219,-0.093327,2.8427,-9.7088,0.9197
132386.0,-0.229445,0.011324,-0.189616,3.0583,-9.3561,0.7323
132403.0,-0.127588,0.051729,-0.206353,3.2521,-9.1840,-0.2681
132420.0,0.005429,0.095607,-0.151307,3.2115,-9.1107,-0.7465
132437.0,-0.049450,0.087673,-0.043355,3.0361,-9.2252,-0.8368
132453.0,-0.157129,0.061557,0.012586,2.9809,-9.4194,-0.6651
132470.0,-0.189577,0.033403,0.044970,2.8132,-9.3821,-0.6551
132486.0,-0.064400,0.028817,0.051236,2.8669,-9.3688,-0.9289
132503.0,0.042456,0.026074,0.018894,2.8289,-9.3359,-0.7096
132520.0,0.092242,-0.004772,-0.017183,2.7008,-9.4089,-0.5822
132536.0,0.054326,-0.032626,-0.005268,2.7749,-9.5144,-0.4407
132553.0,0.015934,-0.025257,0.038374,2.9479,-9.3821,-0.4948
132570.0,-0.042941,-0.016873,0.080925,2.9726,-9.2914,-0.4862
132587.0,-0.061290,-0.002389,0.119374,2.9399,-9.2903,-0.4485
132603.0,-0.010007,0.009587,0.120949,2.9155,-9.3438,-0.4338
132620.0,0.071462,0.010115,0.076253,2.8397,-9.3205,-0.3451
132636.0,0.134839,-0.009566,-0.005596,2.7681,-9.3983,-0.0440
132653.0,0.072792,-0.020806,0.004066,2.9327,-9.3314,-0.0555
132670.0,-0.009158,-0.025449,0.061986,2.9393,-9.2545,-0.2405
132687.0,0.022241,0.001675,0.078253,3.1053,-9.2148,-0.3516
132703.0,0.051236,0.034699,0.020257,3.2202,-9.1372,0.0111
132720.0,0.079675,0.079249,-0.003461,3.2482,-9.1059,0.0193
132736.0,-0.005770,0.077515,-0.004748,3.1355,-9.1358,0.0736
132753.0,-0.037846,0.041472,-0.001158,2.8935,-9.4502,0.0145
132770.0,-0.011341,0.025581,-0.005043,2.8638,-9.4170,-0.1574
132786.0,0.014320,0.035157,-0.026564,2.9212,-9.3284,-0.1059
132803.0,0.023806,0.043987,-0.001920,2.9420,-9.3473,-0.3573
132820.0,0.033636,0.054352,0.061037,2.9013,-9.3715,-0.4310
132836.0,-0.001296,0.094881,0.078969,3.0427,-9.2038,-0.2592
132853.0,-0.046311,0.065873,0.030500,2.8053,-9.3766,0.2638
132870.0,-0.018651,0.021364,-0.034072,2.6598,-9.5497,0.2659
132886.0,0.051013,-0.047400,-0.050740,2.4565,-9.4953,-0.1419
132903.0,0.099629,-0.065010,0.003101,2.6905,-9.4433,-0.5480
132920.0,0.110894,-0.041633,0.052679,2.8150,-9.2897,-0.5845
132936.0,0.040900,0.020286,0.078886,3.2034,-9.1331,-0.1588
132953.0,-0.019034,0.053416,0.048810,3.1677,-9.1239,0.2491
132970.0,-0.040897,0.037601,-0.005371,3.0300,-9.2099,0.3569
132986.0,0.061924,0.010915,-0.048230,2.7771,-9.2615,0.0215
133003.0,0.161759,-0.002952,-0.051009,2.7084,-9.1451,-0.2734
133020.0,0.156698,-0.018307,-0.058740,2.7394,-9.1731,-0.1212
133036.0,0.069811,0.001427,-0.114299,3.1214,-9.2938,0.4033
133053.0,-0.059535,0.049031,-0.144308,3.3080,-9.0770,0.5002
133070.0,-0.095144,0.094662,-0.090950,3.3667,-9.0570,0.1134
133087.0,-0.084491,0.077454,-0.004178,2.8946,-9.1405,-0.6030
133103.0,-0.036103,0.028102,0.008976,2.5717,-9.5726,-0.4646
133120.0,0.012856,0.000781,-0.016107,2.5171,-9.5936,-0.3313
133137.0,-0.005443,0.003584,-0.043097,2.7467,-9.5110,-0.0221
133153.0,-0.028633,0.021929,-0.060036,2.8855,-9.4616,-0.0163
133170.0,-0.063272,0.027002,-0.099923,2.9226,-9.4107,0.0949
133187.0,-0.038355,0.001744,-0.082592,2.7445,-9.4415,-0.2707
133203.0,0.029344,-0.024193,-0.016898,2.5962,-9.4858,-0.9013
133219.0,0.030560,-0.032442,0.029742,2.7155,-9.4317,-0.8372
133236.0,0.005658,0.025556,0.030649,3.0761,-9.3158,-0.4058
133253.0,-0.015638,0.056135,0.008884,3.0875,-9.1822,-0.1944
133270.0,-0.047256,0.064931,0.009078,2.9728,-9.2693,-0.1553
133287.0,-0.001177,0.044600,0.011183,2.7340,-9.2868,-0.3789
133303.0,0.037477,0.018937,-0.023853,2.6796,-9.3070,-0.2062
133320.0,0.042560,0.000571,-0.026216,2.6517,-9.3914,-0.1475
133337.0,-0.034250,0.026583,0.020039,2.9321,-9.2220,-0.2442
133353.0,-0.050888,0.066722,0.048068,3.1373,-9.1568,-0.2424
133370.0,-0.004312,0.085965,0.026009,3.0481,-9.1616,-0.2013
133386.0,0.055791,0.051554,-0.062558,2.7173,-9.3259,0.0406
133403.0,0.055672,0.008753,-0.085000,2.5531,-9.4849,-0.0090
133420.0,0.006834,-0.017001,-0.055850,2.5898,-9.4358,-0.0905
133436.0,-0.085164,0.008836,-0.044126,2.9402,-9.3580,-0.0196
133453.0,-0.062649,0.051092,-0.063122,3.0758,-9.2103,-0.1511
133470.0,0.000084,0.085948,-0.060750,3.0505,-9.2398,-0.3123
133486.0,0.021167,0.061345,0.002941,2.7065,-9.3736,-0.6894
133503.0,-0.009354,-0.001183,0.074171,2.3818,-9.6566,-0.6536
133520.0,-0.046460,-0.052880,0.074268,2.3815,-9.6923,-0.4717
133536.0,0.011138,-0.055343,-0.055266,2.6659,-9.5801,0.0584
133553.0,0.078470,-0.051797,-0.101492,2.7285,-9.3645,-0.2141
133570.0,0.087728,-0.032472,-0.038192,2.8316,-9.3371,-0.4862
133587.0,0.052065,-0.006764,0.059453,2.9495,-9.2234,-0.7308
133603.0,0.028967,-0.010672,0.052915,2.7912,-9.2974,-0.3445
133620.0,0.036769,-0.038982,0.031546,2.6439,-9.3884,-0.1731
133637.0,0.060024,-0.052528,0.024761,2.7077,-9.3948,-0.2806
133653.0,0.035386,-0.032819,0.040175,2.9818,-9.2234,-0.1209
133670.0,0.002744,-0.010296,0.050375,3.0056,-9.2045,-0.1416
133686.0,0.007405,0.019466,-0.005858,3.0522,-9.1785,0.0700
133703.0,0.008711,0.031485,-0.068244,2.9727,-9.2591,0.1893
133720.0,-0.029195,0.027758,-0.087360,2.8856,-9.2868,0.0810
133736.0,-0.044034,0.020334,-0.032991,2.8264,-9.4400,-0.3365
133753.0,-0.027026,0.054993,0.000634,2.9651,-9.2660,-0.5225
133770.0,0.005885,0.103182,0.006262,3.0335,-9.1843,-0.5092
133786.0,-0.000365,0.122881,-0.007965,2.8718,-9.3319,-0.2171
133803.0,-0.035170,0.082391,-0.021441,2.5007,-9.5354,-0.0465
133820.0,-0.044522,-0.002614,-0.052330,2.2543,-9.7128,0.0440
133836.0,0.010325,-0.052163,-0.067332,2.3224,-9.7053,-0.1435
133853.0,0.047591,-0.016581,-0.004691,2.8587,-9.3559,-0.4896
133870.0,0.058138,0.043026,0.034381,3.0834,-9.2307,-0.4357
133886.0,0.120359,0.052047,-0.029222,3.0376,-9.3986,0.2110
133903.0,0.183326,-0.010363,-0.116006,2.5660,-9.7553,0.8058
133920.0,0.210433,-0.077940,-0.141706,2.5419,-9.8297,0.8782
133936.0,0.269340,-0.056283,-0.157802,3.0424,-9.5813,1.0771
133953.0,0.333779,0.016486,-0.178409,3.4818,-9.1901,1.5256
133970.0,0.402311,0.076202,-0.242923,3.5419,-9.1867,1.9327
133987.0,0.392462,0.118369,-0.459743,3.3275,-9.1026,3.0824
134003.0,0.439295,0.141660,-0.747424,3.4149,-9.0851,3.9820
134020.0,0.451714,0.189442,-1.051629,3.3814,-8.9232,4.1282
134036.0,0.234962,0.278192,-1.330045,3.0920,-8.6181,3.6369
134052.0,-0.002157,0.281067,-1.410238,2.7461,-8.6507,2.9185
134070.0,-0.174674,0.260575,-1.422644,2.6448,-8.7990,2.2730
134086.0,-0.353549,0.221543,-1.418911,2.3121,-8.7385,1.3557
134103.0,-0.416253,0.187016,-1.421666,1.9450,-8.7034,0.6059
134120.0,-0.412686,0.110834,-1.433186,1.6605,-8.8348,0.2601
134136.0,-0.462599,0.061895,-1.433013,1.7033,-8.9531,-0.2283
134153.0,-0.507676,0.129121,-1.422639,2.3897,-8.4617,-0.7401
134170.0,-0.570447,0.248461,-1.435158,2.4892,-8.1903,-0.7916
134186.0,-0.646739,0.219085,-1.345384,1.5208,-8.1897,-1.4099
134203.0,-0.681813,0.085311,-1.223187,0.9037,-8.8861,-2.0928
134220.0,-0.738209,0.016418,-1.176051,1.0798,-8.8419,-2.0527
134237.0,-0.684688,0.004842,-1.326716,1.5074,-8.2654,-1.7466
134253.0,-0.537735,0.026071,-1.511169,1.3642,-7.8394,-2.0280
134270.0,-0.420522,-0.055531,-1.577073,0.8019,-7.7107,-2.5343
134287.0,-0.386446,-0.136729,-1.399109,1.1794,-7.6778,-3.8924
134304.0,-0.555512,-0.079588,-1.271962,2.0023,-6.8853,-3.9108
134320.0,-0.772833,-0.045685,-1.292500,2.0524,-6.6619,-3.5739
134337.0,-0.858670,-0.127343,-1.398632,1.3217,-6.7217,-3.7947
134353.0,-0.755579,-0.149443,-1.388527,1.4310,-6.4504,-5.2639
134370.0,-0.591420,-0.092855,-1.317696,1.5972,-6.1453,-5.7893
134387.0,-0.466565,-0.004822,-1.261014,2.0575,-5.7711,-6.0091
134403.0,-0.301512,0.041844,-1.314156,1.6144,-5.8356,-5.8582
134420.0,-0.159430,0.000240,-1.330689,1.3309,-5.7729,-6.0400
134437.0,-0.132904,-0.101063,-1.305532,0.6837,-5.6665,-6.2656
134453.0,-0.424346,-0.132097,-1.318520,1.5663,-5.4235,-5.4896
134470.0,-0.695104,-0.024574,-1.336613,2.0827,-5.1172,-5.4414
134487.0,-0.808053,0.071306,-1.366009,1.9441,-4.8556,-6.0501
134503.0,-0.604869,0.106612,-1.405659,1.1206,-5.0293,-7.3777
134520.0,-0.423173,0.070737,-1.362470,0.7018,-5.0946,-7.8908
134536.0,-0.301840,0.022840,-1.228844,0.5134,-5.3334,-8.3999
134553.0,-0.422134,-0.014927,-1.154233,0.8209,-5.1565,-7.3058
134570.0,-0.655845,0.038831,-1.217041,1.1401,-5.0260,-6.6571
134587.0,-0.745683,0.071016,-1.313718,1.0838,-4.8967,-6.7789
134603.0,-0.709961,0.125433,-1.379754,0.9251,-4.7906,-7.7524
134620.0,-0.626295,0.109574,-1.342167,0.6119,-4.6678,-8.3517
134637.0,-0.448830,-0.008142,-1.283656,-0.3144,-5.1817,-9.4807
134653.0,-0.316958,-0.139239,-1.210142,-0.0814,-4.9611,-9.3942
134670.0,-0.372730,-0.093373,-1.207898,0.3727,-4.7200,-9.0694
134687.0,-0.478888,0.045532,-1.208832,1.4364,-4.0772,-8.7713
134703.0,-0.624097,0.159205,-1.207254,1.0742,-4.0670,-8.8095
134720.0,-0.635964,0.122614,-1.233579,0.7311,-4.1975,-8.9631
134737.0,-0.573930,0.058027,-1.238668,0.1086,-4.2309,-9.4649
134753.0,-0.502638,0.060881,-1.170083,0.2427,-3.8048,-9.9692
134770.0,-0.455086,0.083433,-1.118080,0.2662,-3.7029,-10.0272
134787.0,-0.426370,0.077273,-1.072709,0.1056,-3.7433,-9.9686
134803.0,-0.478016,0.090250,-1.111480,-0.0492,-3.6341,-9.5159
134820.0,-0.606708,0.148820,-1.091757,0.0642,-3.5235,-9.4719
134837.0,-0.663338,0.186494,-0.960199,0.0229,-3.4764,-10.6766
134853.0,-0.478288,0.128944,-0.815496,-0.5004,-3.6583,-11.3294
134870.0,-0.366857,0.066229,-0.848328,-0.7518,-3.7897,-11.0579
134887.0,-0.343304,0.019730,-0.925773,-0.6518,-3.6708,-10.5073
134903.0,-0.408379,0.074454,-0.841617,-0.2153,-3.2645,-11.3591
134920.0,-0.332839,0.111054,-0.644151,-0.1848,-3.0858,-12.0451
134937.0,-0.211617,0.138884,-0.551951,-0.2571,-3.1217,-12.1438
134953.0,-0.207416,0.146760,-0.592013,-0.4426,-3.3326,-11.1288
134970.0,-0.298807,0.092861,-0.578631,-0.7362,-3.4885,-10.9440
134986.0,-0.219695,0.038647,-0.436623,-0.8154,-3.6277,-12.1748
135003.0,-0.002758,0.053299,-0.314263,-0.5731,-3.2447,-12.2838
135020.0,0.095763,0.097056,-0.305609,-0.4836,-3.1542,-11.8618
135036.0,0.046878,0.117447,-0.285584,-0.3944,-3.2440,-11.1399
135053.0,-0.080935,0.114195,-0.157477,-0.4767,-3.2910,-11.2047
135070.0,-0.033264,0.127082,-0.044146,-0.4718,-3.2935,-11.5016
135086.0,-0.003626,0.133076,-0.044131,-0.5555,-3.2379,-10.8637
135103.0,0.017699,0.114203,-0.137289,-0.6867,-3.4122,-10.1571
135120.0,-0.064069,0.088553,-0.158215,-0.7201,-3.4400,-9.9825
135136.0,-0.109143,0.015027,-0.078810,-1.0494,-3.5217,-10.4728
135153.0,0.000392,-0.048021,0.139103,-0.8784,-3.2741,-11.1610
135170.0,0.042046,-0.041686,0.221946,-0.5849,-3.0965,-10.8836
135187.0,0.065880,0.005298,0.173361,-0.4163,-2.7632,-9.6688
135203.0,0.056187,0.007795,0.015551,-0.6690,-3.0993,-9.0202
135219.0,0.062958,-0.028048,-0.064684,-0.8809,-3.2298,-9.0914
135236.0,0.072860,-0.082604,-0.059374,-0.7898,-3.1238,-9.5520
135253.0,0.019295,-0.124309,0.075032,-0.5700,-2.8585,-10.0649
135270.0,0.053172,-0.124194,0.217172,-0.4895,-2.6517,-10.2433
135286.0,0.101592,-0.096847,0.311868,-0.3684,-2.4927,-9.8710
135303.0,0.077486,-0.035776,0.285992,-0.1867,-2.4981,-8.9712
135319.0,0.012865,-0.028194,0.208716,-0.2746,-2.5284,-8.5666
135337.0,-0.034912,-0.073481,0.102148,-0.7139,-2.8071,-8.2618
135353.0,0.057045,-0.160057,-0.030705,-0.8484,-2.9227,-8.5287
135370.0,0.114385,-0.186562,-0.113930,-0.8085,-2.8766,-8.6455
135386.0,0.176168,-0.145398,-0.045939,-0.2592,-2.5781,-9.5560
135403.0,0.090496,-0.055872,0.125018,-0.0498,-2.2950,-10.0371
135419.0,0.156650,0.002669,0.271903,0.0395,-2.2414,-10.2129
135436.0,0.176779,0.020598,0.324974,-0.2111,-2.4514,-9.5009
135453.0,0.058561,-0.040727,0.172152,-0.4384,-3.0155,-8.3131
135470.0,0.014953,-0.094212,0.012009,-0.3856,-3.1825,-8.1410
135486.0,-0.005982,-0.100522,-0.058835,-0.1519,-3.0260,-8.7932
135503.0,0.058096,-0.052860,0.053035,0.0902,-2.7282,-9.9437
135520.0,0.157450,-0.018703,0.172586,-0.0446,-2.5802,-10.1951
135536.0,0.210194,0.008722,0.235021,-0.2019,-2.6829,-9.7954
135553.0,0.129021,0.027999,0.190250,-0.0425,-2.9767,-8.8967
135570.0,0.140915,0.002249,0.077722,-0.1140,-3.1565,-8.6951
135586.0,0.038145,-0.021838,-0.088689,-0.1884,-3.3064,-8.2302
135603.0,0.022663,-0.043061,-0.190978,-0.0714,-3.3073,-8.8482
135620.0,-0.066663,-0.037180,-0.209449,-0.0368,-3.2111,-8.9753
135636.0,-0.127244,0.019105,-0.231745,0.2785,-2.9787,-9.1436
135653.0,-0.116864,0.095987,-0.278693,0.1009,-2.7104,-9.3501
135670.0,-0.104292,0.137397,-0.275643,-0.0860,-2.6050,-9.4442
135687.0,-0.056320,0.138849,-0.208380,-0.2119,-2.7583,-9.9508
135703.0,-0.042750,0.114687,-0.132295,-0.2071,-2.8077,-9.7097
135719.0,-0.088603,0.111924,-0.134458,-0.0778,-2.8340,-9.4507
135736.0,-0.194334,0.115311,-0.180113,0.0711,-2.7780,-8.8913
135753.0,-0.173531,0.123047,-0.209614,-0.2491,-2.8365,-9.3024
135770.0,-0.154513,0.097695,-0.147165,-0.3988,-2.8041,-9.6172
135787.0,-0.075236,0.071520,-0.050126,-0.3674,-2.6866,-10.0582
135802.0,-0.040884,0.064717,0.013605,-0.3297,-2.6026,-9.9787
135819.0,-0.044948,0.114516,0.030673,-0.2274,-2.5437,-9.6450
135837.0,-0.064691,0.089559,-0.004894,-0.4536,-2.6870,-9.3311
135853.0,-0.081168,0.080763,-0.012426,-0.6647,-2.9307,-9.3137
135870.0,-0.048370,-0.003739,-0.005085,-0.6792,-2.8843,-9.4396
135887.0,-0.030688,-0.006919,0.028991,-0.4952,-2.7233,-9.6085
135903.0,0.016555,0.007814,0.044790,-0.3699,-2.6038,-9.6045
135920.0,0.023252,0.013457,0.038506,-0.2717,-2.6107,-9.4734
135936.0,0.002259,0.012008,0.032115,-0.2496,-2.6594,-9.3631
135953.0,-0.015894,0.022203,0.047821,-0.4175,-2.6770,-9.3702
135970.0,-0.071831,0.074684,0.042124,-0.3747,-2.7298,-9.2466
135986.0,-0.087769,0.101766,0.021506,-0.2927,-2.8391,-9.2461
136003.0,-0.049951,0.114779,0.015192,-0.3891,-2.7494,-9.5594
136020.0,-0.000313,0.055715,0.013980,-0.5463,-2.7194,-9.6432
136037.0,0.056725,-0.003446,0.030957,-0.7281,-2.8534,-9.7092
136052.0,0.020139,-0.030916,0.035657,-0.7693,-2.8496,-9.4103
136070.0,-0.068946,0.011764,0.056575,-0.6461,-2.8537,-9.2898
136087.0,-0.114472,0.034444,0.113079,-0.3524,-2.8136,-9.4686
136103.0,-0.048590,0.079943,0.159067,-0.4574,-2.6600,-9.7987
136120.0,-0.004230,0.027975,0.161757,-0.5059,-2.6884,-9.6792
136136.0,-0.006269,0.002666,0.119104,-0.5441,-2.7731,-9.1830
136153.0,-0.079007,0.002500,0.053806,-0.5486,-2.9064,-8.9567
136170.0,-0.085415,0.036804,0.059078,-0.5272,-2.9140,-9.2219
136187.0,-0.029650,0.016224,0.097814,-0.6687,-2.8338,-9.6048
136203.0,0.000883,0.048478,0.098806,-0.6086,-2.8518,-9.4921
136220.0,0.007686,0.037197,0.087620,-0.5260,-2.8582,-9.4153
136237.0,-0.016626,0.012915,0.074036,-0.6520,-2.9432,-9.2853
136253.0,0.043313,-0.028498,0.085257,-0.8351,-3.0290,-9.4566
136270.0,0.079618,0.003070,0.079309,-0.7798,-2.9859,-9.3987
136286.0,0.055201,0.029539,0.071097,-0.5332,-2.8527,-8.9884
136303.0,-0.024003,0.023495,0.058249,-0.5586,-2.8442,-8.7803
136320.0,-0.008241,-0.034552,0.052652,-0.5924,-2.8413,-8.8695
136336.0,0.107678,-0.046888,0.038224,-0.5472,-2.8578,-9.2846
136353.0,0.086001,-0.020099,-0.039921,-0.4591,-2.7747,-8.7929
136370.0,-0.016152,0.028781,-0.051753,-0.3322,-2.8320,-8.7391
136387.0,-0.141957,0.037892,0.023771,-0.3311,-2.8208,-9.1508
136403.0,-0.083170,0.043694,0.099878,-0.5234,-2.8897,-9.7975
136419.0,-0.029077,0.013696,0.098194,-0.7109,-2.9233,-9.7263
136437.0,-0.005492,-0.006729,0.028594,-0.6871,-3.1038,-9.1273
136453.0,0.011060,-0.023125,-0.044415,-0.6638,-3.1225,-9.0074
136470.0,0.022300,-0.018674,-0.107907,-0.6794,-3.0230,-8.9778
136487.0,0.013797,-0.011454,-0.117512,-0.5013,-3.0360,-9.3106
136503.0,0.025311,-0.022851,-0.040860,-0.6108,-3.0041,-9.7588
136520.0,0.003301,-0.050483,0.041508,-0.6339,-3.0360,-9.8924
136537.0,-0.018859,-0.033238,0.085032,-0.4299,-2.9766,-9.5888
136553.0,0.025418,0.009041,0.063300,-0.3612,-2.8506,-9.4400
136570.0,0.007207,0.030354,0.000663,-0.4203,-2.8671,-9.1900
136587.0,0.014091,0.013683,-0.056504,-0.5511,-3.1647,-9.1132
136603.0,0.000657,-0.018288,-0.048986,-0.7263,-3.1391,-9.4430
136620.0,-0.037795,-0.035908,0.008886,-0.6717,-3.1226,-9.5611
136637.0,-0.013230,-0.039514,0.100863,-0.5556,-2.9579,-9.8881
136653.0,0.038462,-0.029832,0.076483,-0.5577,-2.9383,-9.5352
136670.0,0.062553,-0.013012,0.024716,-0.5183,-2.9344,-9.4052
136687.0,0.054371,-0.022447,0.032435,-0.5851,-3.0335,-9.3535
136703.0,0.026220,-0.027973,0.083726,-0.4616,-2.9712,-9.6195
136720.0,-0.000747,-0.020756,0.095816,-0.4787,-2.9085,-9.4305
136736.0,-0.016613,0.012732,0.061302,-0.3286,-2.9202,-9.0845
136753.0,-0.016313,0.005959,0.017595,-0.5255,-3.0438,-9.0959
136770.0,0.038443,-0.011722,0.041781,-0.6035,-3.0602,-9.3314
136786.0,0.087594,-0.019747,0.096610,-0.5255,-2.9426,-9.6220
136803.0,0.050122,-0.012666,0.081557,-0.4990,-2.9896,-9.0978
136820.0,0.000674,-0.011088,0.071415,-0.4721,-3.0733,-8.9994
136837.0,-0.021841,-0.012156,0.043786,-0.4218,-3.0858,-9.0345
136853.0,0.006977,0.009677,-0.006324,-0.3513,-3.0124,-9.0386
136870.0,0.030877,0.021356,-0.026303,-0.4021,-2.9552,-9.1274
136886.0,0.050306,0.017057,-0.002614,-0.5174,-3.0513,-9.4423
136903.0,0.066269,-0.018034,0.035793,-0.6231,-3.1099,-9.4370
136920.0,0.100581,-0.046571,0.042720,-0.6310,-3.1238,-9.3708
136937.0,0.110160,-0.042051,0.019319,-0.4898,-3.0803,-9.1179
136953.0,0.034283,-0.020049,-0.015910,-0.2002,-2.9929,-8.7156
136970.0,-0.028425,0.002586,-0.047594,-0.1339,-3.0339,-8.6913
136987.0,-0.042126,0.015951,-0.068027,-0.2698,-3.0447,-8.9901
137003.0,-0.016712,0.017497,-0.055777,-0.2450,-3.0336,-9.2632
137020.0,-0.022171,0.006058,-0.023169,-0.3077,-3.0441,-9.3133
137041.0,-0.006199,0.012466,0.018771,-0.3644,-2.9754,-9.4879
137053.0,-0.023271,0.013875,0.013911,-0.3551,-2.9972,-9.3055
137070.0,0.014880,0.021961,-0.003330,-0.3297,-3.0559,-9.3148
137087.0,0.029295,0.012859,-0.063583,-0.4830,-3.1156,-9.1408
137103.0,0.002382,0.007440,-0.081334,-0.4084,-3.1794,-9.1150
137120.0,-0.015807,0.017700,-0.054483,-0.3382,-3.0768,-9.2539
137137.0,-0.034876,0.028385,0.009284,-0.3449,-2.9528,-9.5208
137153.0,0.024309,0.025934,0.031461,-0.4126,-3.0831,-9.6190
137170.0,0.022916,0.007409,-0.004257,-0.5707,-3.1394,-9.4125
137187.0,-0.021940,-0.024546,-0.041063,-0.5429,-3.2501,-9.1433
137203.0,-0.001715,-0.013437,-0.012191,-0.4553,-3.1322,-9.6814
137220.0,0.026744,0.009106,0.048529,-0.4489,-3.0751,-9.9846
137237.0,0.068854,0.002098,0.097547,-0.5191,-3.1463,-10.1701
137253.0,0.049356,-0.026363,0.067377,-0.7310,-3.3606,-9.8188
137270.0,0.018283,-0.044429,0.026775,-0.7654,-3.4025,-9.8052
137287.0,0.039621,-0.085165,0.076544,-0.7386,-3.4551,-10.5140
137303.0,0.164859,-0.087582,0.169578,-0.5435,-3.4785,-11.4991
137320.0,0.156867,-0.065957,0.265574,-0.5133,-3.3450,-11.4431
137337.0,0.101787,-0.072810,0.387507,-0.5218,-3.4574,-11.3057
137353.0,0.066871,-0.127517,0.392363,-0.7847,-3.8418,-11.0781
137370.0,0.151839,-0.166538,0.366432,-0.8004,-3.8615,-11.1480
137387.0,0.278881,-0.163439,0.320002,-0.6243,-3.6423,-11.3778
137403.0,0.306557,-0.172297,0.386945,-0.6078,-3.6133,-11.8039
137420.0,0.350635,-0.198071,0.552842,-0.6892,-3.7025,-12.0666
137437.0,0.388682,-0.215165,0.825278,-0.5264,-3.7529,-12.4048
137453.0,0.403858,-0.194389,0.941264,-0.3361,-3.6103,-11.8558
137470.0,0.400069,-0.181362,0.963918,-0.2246,-3.6123,-11.4998
137487.0,0.495511,-0.194023,0.965989,-0.3121,-4.0149,-11.2248
137503.0,0.503660,-0.213020,0.953027,-0.2996,-3.9964,-10.9888
137520.0,0.408447,-0.211556,0.996247,-0.1805,-3.9531,-10.9319
137537.0,0.353186,-0.166066,1.263419,0.3159,-3.9347,-11.6960
137553.0,0.393629,-0.160170,1.419193,0.1496,-3.8632,-11.8619
137570.0,0.490159,-0.146487,1.501277,0.0690,-3.9739,-11.5751
137586.0,0.581701,-0.121352,1.558641,0.2764,-4.1613,-10.7958
137603.0,0.536744,-0.122070,1.565190,0.1782,-4.3025,-9.8303
137620.0,0.443534,-0.178708,1.621753,0.0435,-4.5934,-9.5771
137637.0,0.484286,-0.222662,1.695789,0.1873,-4.8080,-9.7742
137653.0,0.550434,-0.164630,1.709748,0.8407,-4.5167,-9.4161
137670.0,0.663530,-0.101288,1.766494,0.9969,-4.5104,-9.4017
137686.0,0.699189,-0.139026,1.836638,0.4983,-4.8929,-8.8804
137703.0,0.638071,-0.187122,1.823865,0.4705,-5.3196,-7.8483
137720.0,0.572949,-0.171767,1.830908,0.8998,-5.3196,-7.6978
137736.0,0.584277,-0.183921,1.791027,0.8817,-5.2367,-7.4759
137753.0,0.570395,-0.195744,1.728288,1.1862,-5.7039,-7.0168
137770.0,0.623193,-0.211608,1.730841,1.1676,-5.7766,-7.0933
137787.0,0.653095,-0.194952,1.820356,1.3288,-5.6701,-7.1769
137802.0,0.627721,-0.127813,1.914103,1.7228,-5.6452,-6.4994
137819.0,0.566834,-0.064099,1.945582,1.7630,-5.6912,-5.9978
137837.0,0.418470,-0.052573,1.883720,1.5978,-6.0590,-4.7522
137853.0,0.251338,-0.086051,1.873019,1.4090,-6.4530,-4.2288
137870.0,0.181088,-0.125353,1.913840,1.4822,-6.5526,-4.3286
137886.0,0.230950,-0.153659,1.899380,1.4521,-6.5001,-4.2353
137903.0,0.400621,-0.129896,1.827012,1.6945,-6.5700,-3.7263
137920.0,0.440810,-0.080049,1.686172,1.8458,-6.5140,-3.0791
137937.0,0.347001,-0.002740,1.568619,1.9653,-6.5893,-2.2274
137953.0,0.195475,0.060684,1.548680,2.1325,-6.6125,-1.8777
137970.0,0.004096,0.044875,1.514258,1.9523,-6.7721,-1.5839
137986.0,-0.067832,-0.138749,1.388690,1.2613,-7.4650,-0.9566
138003.0,-0.094249,-0.385890,1.191188,0.6149,-8.0593,0.0675
138020.0,-0.140404,-0.624274,0.885867,0.4871,-8.2215,0.6626
138036.0,-0.191762,-0.779575,0.592899,0.8718,-8.1219,0.5980
138053.0,-0.166952,-0.833221,0.602781,1.8355,-7.5998,-1.4413
138070.0,-0.222376,-0.736852,0.952566,2.4104,-7.2341,-2.4283
138087.0,-0.245812,-0.470185,1.394771,3.3655,-6.6210,-2.9167
138103.0,-0.200537,-0.344083,1.469825,3.3113,-7.0081,-1.4307
138120.0,-0.068984,-0.383068,1.317944,2.6586,-7.3474,-0.5098
138136.0,0.226504,-0.434772,0.952568,2.1059,-7.8169,-0.6189
138153.0,0.514680,-0.391408,0.680404,3.0423,-8.1225,-0.5308
138170.0,0.830000,-0.299013,0.568151,3.1891,-7.7797,-1.0540
138187.0,0.675319,-0.066233,0.513483,4.1472,-7.5033,-0.5372
138203.0,0.270495,0.021048,0.619973,4.1219,-8.0508,-0.2613
138220.0,-0.049655,-0.001156,0.757919,3.8099,-8.4069,-0.4127
138237.0,0.016308,-0.032986,0.852974,3.1532,-8.7251,-1.0315
138253.0,0.248011,-0.060767,0.806314,2.6748,-8.9518,-0.8170
138270.0,0.441019,-0.090617,0.715513,2.8536,-9.1574,-0.4513
138287.0,0.564790,-0.085106,0.523387,2.9603,-9.2050,0.7875
138303.0,0.496826,-0.092009,0.419497,3.1132,-9.2485,1.5398
138320.0,0.436990,-0.101395,0.385209,3.0354,-9.2563,1.6432
138337.0,0.386335,-0.148525,0.376665,2.9292,-9.2602,1.6972
138353.0,0.346454,-0.161045,0.364114,3.0122,-9.1456,2.1392
138370.0,0.323022,-0.212071,0.314286,2.7892,-9.3369,2.4436
138387.0,0.120185,-0.259495,0.082498,2.7414,-9.6795,3.5840
138403.0,-0.123922,-0.272113,-0.084240,2.7551,-9.6825,3.8969
138420.0,-0.309809,-0.247710,-0.152785,2.9112,-9.6039,3.4010
138437.0,-0.391571,-0.115797,-0.183353,3.4872,-9.3175,2.3279
138453.0,-0.219122,0.058923,-0.102430,4.3866,-9.0758,0.6334
138470.0,-0.121895,0.116535,-0.045972,4.0167,-8.9706,0.2147
138486.0,-0.163477,-0.049643,-0.085696,2.8578,-9.5325,0.4938
138503.0,-0.250969,-0.154779,-0.165344,3.1262,-9.8216,0.4483
138520.0,-0.208512,-0.131874,-0.167228,3.7143,-9.5286,-0.1022
138537.0,-0.080239,-0.007314,-0.047812,4.3583,-8.7490,-1.4289
138553.0,-0.007856,0.083537,0.121016,4.4719,-8.8054,-2.0411
138570.0,0.014906,0.143153,0.252574,4.3940,-8.8358,-2.0542
138586.0,-0.011686,0.177446,0.299113,4.0244,-8.9380,-1.1407
138603.0,-0.059207,0.179511,0.262558,3.7366,-9.2398,-0.2821
138619.0,-0.052450,0.157564,0.261242,3.6533,-9.2904,-0.2330
138637.0,0.090062,0.139030,0.263170,3.2634,-9.3708,-0.4272
138653.0,0.233153,0.104732,0.226032,2.8346,-9.4903,-0.1077
138670.0,0.346696,0.066918,0.213911,2.7481,-9.5764,-0.0699
138686.0,0.235570,0.034226,0.187066,2.7907,-9.5165,0.5257
138703.0,0.030377,0.071861,0.145689,3.4976,-9.3723,1.2444
138720.0,-0.032429,0.118891,0.130733,3.5766,-9.1345,1.0496
138736.0,0.038170,0.062097,0.146312,2.9393,-9.2020,0.4235
138753.0,0.166724,-0.002437,0.155856,2.6273,-9.5500,0.2352
138770.0,0.188841,-0.048361,0.079636,2.6405,-9.4653,0.5954
138787.0,0.111625,-0.002596,0.050629,3.2323,-9.2478,0.9854
138803.0,0.005204,0.049860,0.041528,3.5496,-8.9358,0.9318
138820.0,-0.078369,0.078806,-0.016595,3.5334,-8.9893,1.0460
138836.0,-0.032678,0.084413,-0.006630,3.2317,-9.1351,0.4108
138853.0,0.048509,0.077275,0.009245,2.9995,-9.1631,-0.0587
138870.0,0.062916,0.058525,0.003338,2.9797,-9.2723,0.0847
138886.0,0.014892,0.034364,-0.009629,3.0088,-9.3956,0.3029
138903.0,0.008532,0.022977,-0.012802,2.9598,-9.3064,0.2165
138920.0,0.006008,-0.014474,-0.006270,2.8121,-9.3745,0.1648
138936.0,0.046246,-0.026782,0.016450,2.9037,-9.4276,0.0403
138953.0,0.052481,0.025363,0.052979,3.2398,-9.1542,-0.0388
138970.0,0.027524,0.063310,0.103564,3.2865,-9.0861,-0.0461
138986.0,-0.038296,-0.007321,0.132915,2.8736,-9.3245,0.2475
139003.0,0.067173,-0.086643,0.104801,2.5367,-9.5669,0.1701
139019.0,0.162545,-0.111485,0.037820,2.6712,-9.4572,0.2592
139036.0,0.144627,-0.076538,-0.006938,3.0981,-9.2537,0.5369
139053.0,0.094064,-0.017048,0.043344,3.4164,-9.1065,0.3707
139070.0,0.068996,0.023919,0.086857,3.3564,-9.0302,0.2816
139086.0,0.051530,-0.002645,0.111168,2.9886,-9.0903,0.4479
139103.0,0.064414,-0.053664,0.073174,2.7328,-9.3073,0.7254
139120.0,0.088623,-0.088043,-0.016638,2.8799,-9.2808,0.9318
139136.0,0.181570,-0.124428,-0.161466,2.9684,-9.2593,1.1735
139153.0,0.170528,-0.142275,-0.200850,3.0381,-9.1891,1.0338
139170.0,0.081852,-0.139752,-0.153369,3.1294,-9.1306,0.8583
139186.0,-0.075589,-0.075254,-0.076985,3.5115,-8.9961,0.5882
139203.0,-0.049699,0.002894,-0.022807,3.6702,-8.9444,0.1725
139220.0,-0.007631,0.047230,0.013316,3.5947,-8.9407,0.0569
139236.0,0.028366,0.001921,-0.023646,3.2192,-9.2296,0.3325
139253.0,0.052123,-0.060897,-0.109005,2.9295,-9.4269,0.7002
139270.0,0.075877,-0.107897,-0.160107,2.9350,-9.3820,0.6232
139287.0,0.055418,-0.055706,-0.084046,3.3770,-9.0652,0.1269
139303.0,-0.025591,0.031590,0.039647,3.8394,-8.7891,-0.1637
139319.0,-0.078582,0.129101,0.077780,3.9585,-8.8265,-0.0073
139337.0,0.027148,0.156849,-0.003969,3.5910,-8.9627,0.2557
139353.0,0.147339,0.081615,-0.091120,2.8416,-9.4011,0.3618
139369.0,0.164431,-0.014340,-0.109711,2.7159,-9.5294,0.3126
139387.0,0.099476,-0.053782,-0.047684,2.9372,-9.3145,0.0893
139403.0,0.071758,0.003553,-0.023745,3.4833,-9.1420,0.1670
139419.0,0.123979,0.079928,0.003296,3.5617,-9.1159,0.0350
139437.0,0.011522,0.098999,0.035855,3.2742,-9.2332,0.3288
139453.0,-0.087994,0.074913,0.069791,2.9706,-9.5035,0.4224
139470.0,-0.104483,0.004783,0.075656,2.7209,-9.5687,0.3183
139487.0,0.039275,-0.067984,0.031120,2.5938,-9.6730,0.1887
139503.0,0.104324,-0.089303,-0.026728,2.8159,-9.5213,0.4354
139520.0,0.064372,-0.060611,-0.036331,3.0950,-9.3962,0.5517
139537.0,-0.048930,0.017052,0.044464,3.5461,-9.1200,0.3558
139553.0,-0.072022,0.040827,0.103544,3.4191,-9.1028,0.1342
139570.0,-0.039583,0.016929,0.119157,3.2205,-9.2320,0.1583
139586.0,0.008542,-0.004577,0.059289,3.0655,-9.2947,0.5088
139603.0,0.023453,-0.009651,0.014947,3.1045,-9.3347,0.7878
139620.0,0.027176,-0.007884,0.018824,3.2193,-9.3531,0.7973
139637.0,0.092243,0.016751,0.050028,3.2775,-9.2686,0.7494
139653.0,0.147115,0.050037,0.069804,3.3951,-9.3948,1.0110
139670.0,0.161311,0.086931,0.102054,3.4598,-9.4706,1.2806
139687.0,0.263989,0.146842,0.071800,3.6019,-9.6417,1.8537
139703.0,0.343747,0.159502,0.019175,3.5431,-9.9648,2.7411
139720.0,0.334006,0.177507,-0.042328,3.5108,-10.0627,3.0761
139737.0,0.272498,0.212225,-0.202640,3.4999,-9.8318,3.7351
139753.0,0.198768,0.199987,-0.387531,3.2212,-9.9515,4.3437
139770.0,0.106230,0.134962,-0.549761,2.9775,-10.0272,4.3157
139787.0,0.019935,0.001412,-0.760956,2.4948,-9.9195,4.0293
139803.0,-0.059835,-0.081116,-0.952662,2.5340,-9.6480,3.8648
139820.0,-0.174115,-0.080320,-1.085339,3.1394,-9.0824,2.8920
139837.0,-0.290670,-0.030254,-1.048830,3.3927,-8.7753,2.2099
139853.0,-0.333741,0.037682,-0.922471,3.4173,-8.3380,0.9310
139870.0,-0.335096,0.028321,-0.871434,3.0140,-8.2741,0.5546
139886.0,-0.340834,0.014932,-0.880681,2.9673,-8.3187,0.5969
139903.0,-0.321819,-0.000144,-0.936886,3.0900,-8.2440,0.5679
139920.0,-0.365085,0.059524,-0.990336,3.5397,-7.8829,0.6216
139937.0,-0.443333,0.177876,-1.003249,3.7043,-7.5684,0.4084
139953.0,-0.530690,0.263684,-1.044177,3.3956,-7.2999,0.2661
139970.0,-0.516506,0.265527,-1.110282,2.8054,-7.4042,-0.0407
139986.0,-0.491207,0.205822,-1.109219,2.4828,-7.5527,-0.3582
140003.0,-0.452083,0.205155,-1.159492,2.7093,-7.2969,-0.7075
140020.0,-0.393789,0.247813,-1.294918,2.7393,-6.9020,-0.5308
140037.0,-0.393637,0.287711,-1.502646,2.7530,-6.7071,-0.3931
140053.0,-0.426499,0.287462,-1.709005,2.3581,-6.6849,-0.7355
140070.0,-0.442411,0.249591,-1.719094,1.8287,-6.6291,-2.0886
140087.0,-0.419908,0.225464,-1.591357,1.6342,-6.5173,-2.9426
140103.0,-0.222807,0.171008,-1.207718,1.4129,-6.5209,-5.0440
140120.0,-0.035227,0.061703,-0.889685,0.9703,-6.8434,-5.7554
140137.0,-0.155757,-0.099272,-0.985749,0.8585,-6.8392,-4.5517
140153.0,-0.599576,-0.094446,-1.618188,1.8592,-7.3025,-1.2537
140170.0,-0.712655,0.005239,-1.873464,2.5637,-6.5317,-3.0002
140186.0,-0.813415,0.186651,-1.782645,2.6466,-5.9732,-4.6468
140203.0,-0.857408,0.317692,-1.365680,2.4156,-6.0008,-7.6372
140220.0,-0.586329,0.207296,-0.793030,1.2680,-6.7941,-8.3626
140237.0,-0.425969,0.145025,-0.795269,1.1006,-7.0856,-7.2639
140253.0,-0.345951,0.164941,-1.021279,1.6842,-7.0963,-4.8402
140270.0,-0.376169,0.250993,-1.426259,2.3218,-6.6424,-3.7682
140286.0,-0.500064,0.313530,-1.647253,2.2963,-6.4467,-3.8563
140302.0,-0.536417,0.340553,-1.640965,1.9435,-6.4048,-5.5418
140320.0,-0.689743,0.458943,-1.437672,2.1362,-5.8811,-6.7350
140336.0,-0.795852,0.623619,-1.168935,2.2244,-5.5415,-7.1591
140353.0,-0.999696,0.781698,-0.986820,2.0877,-5.7640,-6.9969
140370.0,-0.885570,0.689885,-1.032438,0.3760,-6.8124,-6.6476
140387.0,-0.560769,0.502876,-1.281903,-0.2907,-7.0823,-6.4833
140403.0,-0.175042,0.333564,-1.595426,-0.6508,-6.8553,-6.4003
140420.0,-0.080500,0.331368,-1.822232,0.6604,-6.1619,-6.6646
140437.0,-0.355899,0.467182,-1.738614,1.2374,-5.8145,-7.1334
140453.0,-0.765297,0.613340,-1.451832,1.1426,-5.1920,-8.3974
140470.0,-0.911656,0.600664,-0.977775,-0.1995,-5.7727,-9.9579
140486.0,-0.673454,0.443500,-0.848779,-0.8134,-6.1586,-9.9991
140503.0,-0.439794,0.324765,-1.014731,-1.0868,-6.2733,-8.4848
140520.0,-0.270262,0.198002,-1.411402,-1.0111,-6.0183,-7.4677
140536.0,-0.303562,0.168869,-1.555599,-0.7513,-5.8094,-7.7152
140553.0,-0.568466,0.239394,-1.492428,-0.0522,-5.1558,-8.7964
140570.0,-0.801477,0.385904,-1.150461,0.1582,-4.6332,-10.0721
140586.0,-0.756296,0.447767,-0.932725,-0.2131,-4.6397,-10.4914
140603.0,-0.577031,0.414862,-0.911582,-1.0757,-5.2707,-10.3596
140620.0,-0.353349,0.272494,-1.092116,-1.9944,-5.7432,-9.5083
140636.0,-0.284281,0.114312,-1.193123,-2.3201,-5.6870,-9.4209
140653.0,-0.355143,0.006332,-1.165154,-1.9070,-5.4869,-10.1622
140670.0,-0.255459,-0.045395,-0.945010,-1.4545,-5.0992,-11.3955
140687.0,-0.077490,-0.025725,-0.743614,-1.3704,-4.8508,-11.8420
140703.0,0.076388,0.033410,-0.571252,-1.1591,-4.3088,-11.8191
140720.0,0.091397,0.052626,-0.459226,-1.1875,-4.4605,-10.8430
140736.0,-0.051105,0.015959,-0.457316,-1.1877,-4.7420,-10.2862
140753.0,-0.125183,-0.055717,-0.486332,-1.4341,-4.9057,-9.7932
140770.0,-0.025797,-0.131366,-0.507104,-1.4033,-4.6872,-10.0718
140787.0,0.010363,-0.103398,-0.471573,-1.1009,-4.3851,-10.0820
140803.0,0.038766,-0.049557,-0.370704,-0.6415,-4.0065,-10.2469
140820.0,0.065787,-0.053472,-0.286934,-0.9122,-3.9961,-9.8463
140837.0,0.081668,-0.092813,-0.354932,-1.0217,-4.0734,-9.4867
140853.0,0.054194,-0.091658,-0.413740,-0.8247,-4.1242,-9.1206
140870.0,-0.130248,-0.062177,-0.377006,-0.4190,-3.7402,-9.3342
140887.0,-0.164961,-0.002130,-0.253895,-0.2457,-3.6353,-9.7731
140903.0,-0.195830,0.008875,-0.199316,-0.4679,-3.5519,-9.7909
140920.0,-0.177161,-0.019659,-0.269197,-0.8130,-3.6643,-9.4421
140936.0,-0.071565,-0.042330,-0.294621,-0.9014,-3.6657,-9.6712
140953.0,-0.011024,-0.041630,-0.232935,-0.8086,-3.5226,-10.2328
140970.0,-0.062114,-0.015173,-0.129513,-0.5068,-3.4098,-9.9997
140987.0,-0.170026,0.021019,-0.131335,-0.4331,-3.4616,-9.6400
141003.0,-0.167454,0.017206,-0.160346,-0.6713,-3.6233,-9.6166
141020.0,0.025520,-0.066142,-0.170627,-1.1708,-3.6857,-10.2012
141036.0,0.127728,-0.106950,-0.118369,-1.1314,-3.5870,-10.3301
141053.0,0.081467,-0.108028,-0.032216,-0.7509,-3.3396,-10.0111
141070.0,-0.124089,-0.058672,0.060851,-0.2722,-3.2470,-9.6274
141086.0,-0.069606,-0.031637,0.084935,-0.3141,-3.3357,-9.8013
141103.0,0.001255,-0.042604,0.032597,-0.6446,-3.3657,-9.5042
141120.0,0.099729,-0.067300,-0.084564,-0.6584,-3.5400,-9.1153
141136.0,0.084412,-0.060995,-0.132212,-0.5780,-3.4915,-9.0622
141153.0,0.047339,-0.041977,-0.050276,-0.4642,-3.3046,-9.6503
141169.0,0.045054,-0.038024,0.123354,-0.6033,-3.1565,-10.0422
141187.0,0.059291,-0.056585,0.148385,-0.6485,-3.2325,-9.6739
141203.0,0.071727,-0.046690,0.059881,-0.4482,-3.3835,-8.7744
141219.0,0.057704,-0.011855,-0.111203,-0.3217,-3.2950,-8.3691
141237.0,0.054917,0.012964,-0.161260,-0.3255,-3.2726,-8.5177
141253.0,-0.012135,0.024724,-0.091133,-0.4323,-3.2120,-9.2406
141270.0,-0.037980,0.031364,0.081901,-0.5535,-3.1524,-9.8557
141286.0,0.016956,0.020826,0.139322,-0.6725,-3.1659,-9.8892
141303.0,0.040089,0.008821,0.075970,-0.8272,-3.2412,-9.0858
141320.0,0.022561,-0.005295,-0.063693,-0.7714,-3.4969,-8.5814
141337.0,0.033089,-0.040432,-0.097800,-0.8157,-3.5536,-8.7022
141353.0,0.081297,-0.053338,-0.037979,-0.9162,-3.3797,-9.5458
141370.0,0.056201,-0.037574,0.054976,-0.6358,-3.1852,-9.4584
141387.0,0.007658,-0.028849,0.058188,-0.6170,-3.1535,-9.2488
141403.0,-0.019401,-0.028048,0.021857,-0.6595,-3.3185,-8.9322
141420.0,0.068108,-0.048267,-0.006346,-0.8384,-3.3612,-9.2864
141436.0,0.140062,-0.079931,0.027376,-0.9616,-3.3643,-9.4691
141453.0,0.151983,-0.096927,0.049899,-0.6955,-3.3197,-9.3375
141469.0,0.056532,-0.059789,-0.015357,-0.3669,-3.2518,-8.5196
141487.0,-0.050261,-0.012721,-0.035272,-0.2514,-3.1879,-8.4349
141503.0,-0.086762,0.020013,0.007684,-0.2601,-3.1518,-9.0790
141520.0,0.000981,0.004221,0.039230,-0.5739,-3.2314,-9.3284
141536.0,0.033432,0.006380,-0.001581,-0.5812,-3.2898,-9.1071
141553.0,-0.014262,0.008941,-0.073625,-0.4642,-3.3480,-8.5826
141570.0,-0.030805,-0.005095,-0.102629,-0.6473,-3.4134,-8.9854
141586.0,-0.011282,-0.020564,-0.064589,-0.7441,-3.3293,-9.3051
141603.0,0.030342,-0.016939,-0.020066,-0.6294,-3.1524,-9.5577
141620.0,0.016507,-0.002574,-0.033066,-0.4546,-3.1776,-9.1550
141636.0,0.011017,-0.018267,-0.029212,-0.4862,-3.2171,-9.1394
141653.0,0.069528,-0.060250,0.007463,-0.7132,-3.2727,-9.4571
141670.0,0.095499,-0.080077,0.013944,-0.6018,-3.3377,-9.2947
141687.0,0.067532,-0.060796,-0.013125,-0.4516,-3.2859,-9.0727
141703.0,-0.015554,-0.013397,-0.037787,-0.3059,-3.2102,-8.8147
141720.0,-0.021077,-0.007434,-0.014572,-0.3864,-3.3016,-9.2416
141736.0,0.042515,-0.010568,0.025549,-0.5188,-3.3493,-9.5120
141753.0,0.126276,-0.057090,0.047076,-0.6737,-3.3833,-9.5844
141770.0,0.076164,-0.057852,0.030491,-0.5369,-3.3080,-9.0134
141786.0,0.003855,-0.042762,-0.006747,-0.4287,-3.3299,-8.7635
141803.0,-0.157759,-0.005060,-0.042552,-0.1926,-3.4319,-8.7318
141820.0,-0.163294,0.039111,-0.066293,-0.2402,-3.3456,-9.1993
141847.0,0.101522,0.006460,-0.061397,-0.8443,-3.2920,-9.9142
141853.0,0.135379,0.004700,-0.069006,-0.8320,-3.2720,-9.7909
141870.0,0.105546,0.021508,-0.137751,-0.5303,-3.3097,-9.0682
141886.0,0.035293,0.032722,-0.174380,-0.4627,-3.3621,-8.9655
141903.0,-0.051321,-0.003779,-0.153288,-0.6590,-3.3338,-9.1626
141920.0,-0.061135,-0.056973,-0.052102,-0.9828,-3.3106,-9.8385